#timestamp [ns],w_RS_S_x [rad s^-1],w_RS_S_y [rad s^-1],w_RS_S_z [rad s^-1],a_RS_S_x [m s^-2],a_RS_S_y [m s^-2],a_RS_S_z [m s^-2] 
251350000000,0.000184683811169,-0.000194702188433,-0.000157161477368,-1.0916352437e-08,2.53407596472e-08,9.79999996177
251360000000,0.000180031302776,-0.000199377524073,-0.000162852691401,-1.1875655682e-08,2.71397888611e-08,9.79999979962
251370000000,0.0001791779991,-0.000197997840889,-0.00015876685038,-1.24953006291e-08,2.82613724449e-08,9.79999969093
251380000000,0.000181946966681,-0.000200338292115,-0.000159301190903,-1.28517137831e-08,2.89196228981e-08,9.79999961808
251390000000,0.000188767540379,-0.000202771074312,-0.000161659039299,-1.30164426278e-08,2.91941909038e-08,9.79999956924
251400000000,0.000183560388364,-0.00020509593537,-0.000158762455964,-1.30539298143e-08,2.91203336387e-08,9.7999995365
251410000000,0.00017531890072,-0.000205294534153,-0.000153451591983,-1.30101557408e-08,2.55923734885e-08,9.79999971664
251420000000,0.000180571793559,-0.000203851134886,-0.000156390034702,-1.29096409136e-08,2.16779899992e-08,9.79999979273
251430000000,0.000182051888699,-0.000199130569796,-0.000160554179638,-1.27664050671e-08,1.75942747837e-08,9.79999982367
251440000000,0.000179523285802,-0.000196892195889,-0.000161305637916,-1.25979276292e-08,1.34047467675e-08,9.79999983539
251450000000,0.000183356419738,-0.000190368815238,-0.000163697989197,-1.03200410818e-08,7.50058837466e-09,9.80000004127
251460000000,0.000175136986106,-0.000194206835091,-0.000158596932793,-7.84881454397e-09,1.34697513638e-09,9.8000001328
251470000000,0.000174658185799,-0.000190159625871,-0.000159766016958,-5.23647391115e-09,-4.89330017271e-09,9.80000017327
251480000000,0.00018209523404,-0.000190729797188,-0.00016166369909,-2.52568694348e-09,-1.1097876868e-08,9.80000019102
251490000000,0.000184237009995,-0.000190749115286,-0.000167179547735,2.30665332273e-10,-1.72557308447e-08,9.8000001987
251500000000,0.000190970012527,-0.000186865687823,-0.000173412332399,1.70680988703e-09,-2.05299085983e-08,9.79999995844
251510000000,0.000190894887018,-0.000178378241732,-0.000175574083057,2.77512986002e-09,-2.28452362317e-08,9.79999979739
251520000000,0.000189414467522,-0.000179019911798,-0.000179552190004,3.54946712641e-09,-2.43758103923e-08,9.79999968944
251530000000,0.000189315813856,-0.000177257652065,-0.00018287232972,4.10579723043e-09,-2.52981718288e-08,9.79999961708
251540000000,0.000192333701795,-0.000181048430794,-0.000184811395198,4.48263189367e-09,-2.5812276875e-08,9.79999956857
251550000000,0.000186685259945,-0.000188387692086,-0.000179646661221,4.70883401406e-09,-2.60869294968e-08,9.79999953605
251560000000,0.000194072169894,-0.000185261124355,-0.000178158001835,4.8297567296e-09,-2.62056943546e-08,9.79999951426
251570000000,0.000192128056643,-0.000190444553876,-0.000189998504807,4.90316938077e-09,-2.61792660794e-08,9.79999949965
251580000000,0.000189265069072,-0.000192216236725,-0.00018675188273,4.97096200526e-09,-2.60154432947e-08,9.79999948986
251590000000,0.000192571899075,-0.000191783051735,-0.000187239609678,5.04019416783e-09,-2.57767672838e-08,9.79999948329
251600000000,0.000190710262837,-0.000188220550152,-0.000179638656095,5.09447322234e-09,-1.91806417569e-08,9.80000008512
251610000000,0.000194928826451,-0.000188586481855,-0.000179739812504,5.12511155007e-09,-1.20311747142e-08,9.80000035456
251620000000,0.000189422545552,-0.0001819582199,-0.000177807793587,5.15202619509e-09,-4.44699507985e-09,9.80000047498
251630000000,0.000194162538517,-0.000172055600511,-0.000181003073613,5.21066325048e-09,3.46339460595e-09,9.80000052866
251640000000,0.000191262332891,-0.000171121044506,-0.000175973015148,5.32015240884e-09,1.15269981825e-08,9.80000055248
251650000000,0.000196153343678,-0.000167785108698,-0.000175034634955,5.46730616933e-09,1.95874848146e-08,9.80000056299
251660000000,0.000194761086156,-0.0001659416562,-0.000168739761936,5.62210213969e-09,2.76167128644e-08,9.80000056758
251670000000,0.000191755516049,-0.000167939158426,-0.000168177975019,5.76962579193e-09,3.56856889618e-08,9.80000056956
251680000000,0.000191353606975,-0.000168672785299,-0.000170010571872,5.92661039614e-09,4.38166917876e-08,9.80000057038
251690000000,0.000192095463087,-0.000174156124055,-0.000171611652661,6.1240921439e-09,4.80598305617e-08,9.80000020759
251700000000,0.00019232152095,-0.000177338330786,-0.000174414408018,6.37501893989e-09,5.08716246724e-08,9.7999999644
251710000000,0.000190396429798,-0.000179426507101,-0.000176189141886,6.66087111734e-09,5.26257508379e-08,9.79999980139
251720000000,0.000185902281666,-0.000177486601275,-0.00017864388639,6.94985216825e-09,5.37646103667e-08,9.79999969212
251730000000,0.000183060158488,-0.000175983498248,-0.000184993324957,5.11341582988e-09,4.98178141262e-08,9.80000002302
251740000000,0.00018427723879,-0.000176935868339,-0.000182693475007,3.079032908e-09,4.51196886891e-08,9.80000015552
251750000000,0.000182736153013,-0.000172811469422,-0.000179771435926,9.41787324065e-10,3.97487626875e-08,9.8000002042
251760000000,0.000185397783381,-0.00017754374305,-0.000185612492159,-1.25788472446e-09,3.38850985589e-08,9.80000021881
251770000000,0.000184307755159,-0.000174346853887,-0.000186071446813,-3.51244044505e-09,2.78317355037e-08,9.8000002205
251780000000,0.000184392637865,-0.000174865740817,-0.000189462400364,-5.80586946978e-09,2.18412338005e-08,9.80000021799
251790000000,0.000181149932009,-0.000176455397986,-0.000190221991843,-8.10210200979e-09,1.59768808246e-08,9.80000021467
251800000000,0.000187113530648,-0.000181658802044,-0.000192997120612,-1.03730099393e-08,1.01641556988e-08,9.80000021171
251810000000,0.000189596994131,-0.000179475954819,-0.000184463740148,-1.26246429121e-08,4.35044870825e-09,9.8000002094
251820000000,0.000186796358063,-0.000178710527935,-0.000183222453948,-1.48823509432e-08,-1.40673100658e-09,9.8000002077
251830000000,0.000191006581948,-0.000174931827552,-0.000186183077944,-1.71513237098e-08,-7.00917435931e-09,9.80000020649
251840000000,0.000192011748017,-0.000173978784083,-0.000185837112529,-1.94025968249e-08,-1.24402546321e-08,9.80000020565
251850000000,0.000199515180792,-0.000179377131273,-0.000194206913053,-2.16074844507e-08,-1.77754934366e-08,9.80000020508
251860000000,0.000198765344284,-0.000180711475379,-0.000192068923914,-2.37831273359e-08,-2.30781697537e-08,9.80000020469
251870000000,0.000195709717598,-0.000181455223915,-0.000182846133513,-2.47275551542e-08,-2.73606757848e-08,9.80000008344
251880000000,0.000192744476277,-0.000183171468118,-0.000183009434915,-2.53345946466e-08,-3.12060084699e-08,9.80000000216
251890000000,0.000193320152967,-0.000184814627339,-0.000178929738031,-2.56736731603e-08,-3.47156631911e-08,9.79999994768
251900000000,0.000196461124107,-0.000189386158759,-0.000176080286311,-2.57649303842e-08,-3.80671425262e-08,9.79999991116
251910000000,0.000190409543661,-0.000184595984466,-0.000179850758975,-2.56566733987e-08,-4.13992030719e-08,9.79999988668
251920000000,0.000193314487031,-0.000179780084572,-0.000177781918044,-2.33441298261e-08,-4.11984565211e-08,9.79999995136
251930000000,0.000190238783926,-0.00018359983171,-0.000169412685828,-2.08394021325e-08,-4.0077901265e-08,9.79999995006
251940000000,0.000198238809569,-0.000185797217634,-0.000164683304922,-1.8233902866e-08,-3.82394716177e-08,9.79999992913
251950000000,0.000203031262757,-0.000185117101752,-0.000164533436853,-1.55357127967e-08,-3.59913140611e-08,9.79999990608
251960000000,0.000204405727269,-0.000182797650683,-0.000164229573776,-1.27479160084e-08,-3.36151671163e-08,9.79999988658
251970000000,0.000200839398213,-0.000182535635939,-0.000160192612188,-9.92254709922e-09,-2.80377258181e-08,9.80000007377
251980000000,0.000202608624241,-0.000175033030446,-0.000155722843678,-7.13919696238e-09,-2.20583916679e-08,9.80000015377
251990000000,0.000200481453054,-0.000179531258354,-0.000153567490006,-4.44302652364e-09,-1.57260983245e-08,9.80000018696
252000000000,0.000194753734576,-0.000174100316448,-0.000152899760851,-1.82057808996e-09,-9.20596430168e-09,9.80000020003
252010000000,0.000192829989284,-0.00017110371009,-0.000156584474757,7.64626805801e-10,-2.70469701229e-09,9.80000020466
252020000000,0.000196760709966,-0.000172562938607,-0.000154772953005,3.32373537815e-09,3.67539230955e-09,9.80000020592
252030000000,0.00019484003551,-0.000171264939974,-0.000159987306667,5.83528309009e-09,9.96555085351e-09,9.80000020592
252040000000,0.000191240181314,-0.000168770009564,-0.000158620838621,8.28175356545e-09,1.62242296861e-08,9.80000020555
252050000000,0.00019102667451,-0.000173287901464,-0.000152872304747,1.06787442016e-08,2.24346317148e-08,9.80000020514
252060000000,0.000189371344713,-0.00016459080787,-0.000155645429189,1.30584841145e-08,2.85248567957e-08,9.80000020478
252070000000,0.000185580161423,-0.000165920177362,-0.000156140051389,1.41674096558e-08,3.16066725914e-08,9.79999996252
252080000000,0.000185248162176,-0.000162280077089,-0.000158462010466,1.48360991371e-08,3.37122964898e-08,9.79999980013
252090000000,0.000183386537552,-0.00016153064792,-0.000159309881314,1.51614577768e-08,3.51244048108e-08,9.79999969127
252100000000,0.000185727921984,-0.000158045807018,-0.000160656211043,1.52534306731e-08,3.59967024943e-08,9.79999961831
252110000000,0.000191487225664,-0.000157194746965,-0.000161441684842,1.52119850617e-08,3.32076084242e-08,9.79999977143
252120000000,0.000185200931527,-0.000154980651904,-0.000159889931657,1.5094398667e-08,2.97608878911e-08,9.79999982944
252130000000,0.000183852660455,-0.000161687588356,-0.000162285347676,1.49130818571e-08,2.5937013309e-08,9.79999984827
252140000000,0.000185356503829,-0.000162793334244,-0.000166293805254,1.46688648566e-08,2.19255135867e-08,9.79999985188
252150000000,0.000190532611114,-0.000157188053747,-0.000167748011352,1.22736279276e-08,1.62008642584e-08,9.80000005232
252160000000,0.00018991212482,-0.000157564964005,-0.000170237597274,9.68671323035e-09,1.02038653084e-08,9.80000014021
252170000000,0.000188047816797,-0.000155925008032,-0.000175172206957,7.00419881339e-09,4.04241021581e-09,9.80000017824
252180000000,0.00019739593577,-0.000157421875045,-0.000178362071326,4.26016956634e-09,-2.14567666935e-09,9.80000019435
252190000000,0.00019883194039,-0.000157612161377,-0.000185059934273,1.4658998288e-09,-8.28705455318e-09,9.80000020093
252200000000,0.000205286087782,-0.000153438422342,-0.000176668871167,-1.35030460993e-09,-1.44067615088e-08,9.80000020345
252210000000,0.000206704581327,-0.000153365970378,-0.000178769175359,-2.87322894394e-09,-1.76744516927e-08,9.79999996163
252220000000,0.00020606348473,-0.000150560635694,-0.000174587638585,-3.95138588926e-09,-1.9977136124e-08,9.79999979953
252230000000,0.000209920360645,-0.000151826347631,-0.000172940230734,-4.6921491314e-09,-2.14642021186e-08,9.79999969087
252240000000,0.000210339413703,-0.000155148284754,-0.000168408555163,-5.18333127206e-09,-2.23241797625e-08,9.79999961804
252250000000,0.000215690017177,-0.000148182139453,-0.000165321237562,-5.4856821148e-09,-2.27989107858e-08,9.79999956921
252260000000,0.000212688827107,-0.000147944333875,-0.000160273817634,-5.64161006451e-09,-2.30887241953e-08,9.79999953649
252270000000,0.000217234437176,-0.000145210388773,-0.000162427665107,-5.6899917443e-09,-2.32685269269e-08,9.79999951455
252280000000,0.0002201928158,-0.00014292551124,-0.000165323511808,-5.67099590294e-09,-2.33100711064e-08,9.79999949984
252290000000,0.000217912583811,-0.000144135954245,-0.000166222263568,-5.61756784307e-09,-2.31917377988e-08,9.79999948999
252300000000,0.000225185043572,-0.000148192544003,-0.000169144929892,-5.54629884573e-09,-1.97857882523e-08,9.79999968545
252310000000,0.000230698662633,-0.000152672377314,-0.000174393754236,-5.45985272418e-09,-1.61299412129e-08,9.79999977182
252320000000,0.000236138804876,-0.000152196990808,-0.000171330482573,-3.24404365465e-09,-1.0795984563e-08,9.80000001172
252330000000,0.000240376758254,-0.000151950318799,-0.000170203531926,-8.166253377e-10,-5.22418879554e-09,9.80000011886
252340000000,0.000247708274214,-0.0001549869151,-0.000168209742616,1.73691358889e-09,5.68056808122e-10,9.80000016657
252350000000,0.00024530834731,-0.000156547815621,-0.000159271558812,4.37452676445e-09,6.49049903314e-09,9.80000018771
252360000000,0.00024342466204,-0.000164576306797,-0.000159804605643,7.0758319504e-09,1.24034756405e-08,9.80000019701
252370000000,0.000248149828376,-0.000168421005973,-0.000160103381033,9.80995073414e-09,1.82303332199e-08,9.80000020106
252380000000,0.000245508101521,-0.000168251414133,-0.000158880777962,1.25345062643e-08,2.39992845097e-08,9.80000020279
252390000000,0.000244992216292,-0.000166225600677,-0.000150211153183,1.522764047e-08,2.9761015556e-08,9.80000020351
252400000000,0.000232338858739,-0.000176377568436,-0.000151074249193,1.79086034176e-08,3.54929251055e-08,9.80000020379
252410000000,0.000234262839052,-0.000171310844677,-0.000147450424936,1.93513001853e-08,3.82330493173e-08,9.79999996186
252420000000,0.000237170982617,-0.000169754712469,-0.000148435497711,2.04066152185e-08,3.99274991859e-08,9.79999979968
252430000000,0.000240351512926,-0.000170919556494,-0.000151434590433,2.11323894981e-08,4.09161308393e-08,9.79999969097
252440000000,0.000247953800019,-0.000170162560531,-0.000149932028583,2.15819072485e-08,4.14707511713e-08,9.7999996181
252450000000,0.0002471649395,-0.00017513449296,-0.000160016364409,1.97344348864e-08,3.6920525738e-08,9.7999999734
252460000000,0.000241417860365,-0.000172736683617,-0.000161706335916,1.76040218368e-08,3.15505483301e-08,9.80000012226
252470000000,0.000242529861829,-0.000175473166387,-0.000158979726583,1.53097174942e-08,2.55843518374e-08,9.80000018191
252480000000,0.000239478153522,-0.000181828398634,-0.000157924850936,1.28912766461e-08,1.93054375446e-08,9.80000020386
252490000000,0.00024178709839,-0.000182909884769,-0.000158559925558,1.03665294011e-08,1.29304937448e-08,9.80000021048
252500000000,0.000239329924914,-0.000187163496003,-0.000160723713015,7.78117817857e-09,6.53092626038e-09,9.80000021127
252510000000,0.000249520163693,-0.000188178195392,-0.000160042007009,5.20215257618e-09,9.53033755989e-11,9.80000021017
252520000000,0.000251947191021,-0.000184802244531,-0.000161065488587,2.67233664458e-09,-6.35553777811e-09,9.80000020869
252530000000,0.000254275331658,-0.000183220309567,-0.0001647194,1.88912705171e-10,-1.27385311838e-08,9.80000020737
252540000000,0.000258561924402,-0.000184265263064,-0.000161417323194,-2.26972651281e-09,-1.89925225048e-08,9.80000020634
252550000000,0.000257871164558,-0.000180866683419,-0.000167117777047,-4.70548139353e-09,-2.32447448787e-08,9.80000008457
252560000000,0.000254650458064,-0.000178115800643,-0.000165177946229,-7.09727007889e-09,-2.6874441901e-08,9.80000000294
252570000000,0.00026185787569,-0.00018460253361,-0.000164076377326,-9.43468045129e-09,-3.00349041325e-08,9.79999994821
252580000000,0.000261786326667,-0.00018629298901,-0.000160994736997,-1.17414133827e-08,-3.27702219608e-08,9.79999991152
252590000000,0.000267689014943,-0.000184382431134,-0.00016264930438,-1.40531487732e-08,-3.51244770516e-08,9.79999988692
252600000000,0.000259525008586,-0.000181076087793,-0.000158406730549,-1.51125499931e-08,-3.30791577168e-08,9.79999995149
252610000000,0.000264217027954,-0.000174420875812,-0.000154620307287,-1.57361519919e-08,-3.03663845697e-08,9.79999995014
252620000000,0.000265448251654,-0.000178694052496,-0.000159026260432,-1.60087548074e-08,-2.7233867473e-08,9.79999992917
252630000000,0.000263225352799,-0.000171793250657,-0.000153115452634,-1.60452234011e-08,-2.3759764244e-08,9.79999990611
252640000000,0.000258681571746,-0.0001670992556,-0.000147333910534,-1.38588339171e-08,-1.83807549529e-08,9.80000008867
252650000000,0.000261200667175,-0.000166585800954,-0.000154230980109,-1.14083556936e-08,-1.26508402183e-08,9.80000016457
252660000000,0.000263679273994,-0.000169572156388,-0.000160068618196,-8.75217562423e-09,-6.79652828777e-09,9.80000019457
252670000000,0.000258176575205,-0.000167092626443,-0.000159870345391,-5.9324677312e-09,-9.52311567336e-10,9.80000020529
252680000000,0.000257966268365,-0.000164060882439,-0.000161292646898,-3.0198089743e-09,4.87601877297e-09,9.80000020826
252690000000,0.000263458296495,-0.000169999641542,-0.000162661040926,-9.72932078048e-11,1.07181117016e-08,9.80000020836
252700000000,0.000261409109934,-0.000169101703208,-0.000171433432552,2.78639053038e-09,1.65410423778e-08,9.80000020758
252710000000,0.000261536962708,-0.000169944361979,-0.000164059557722,5.63167499397e-09,2.22644454459e-08,9.80000020667
252720000000,0.000252815723402,-0.000167823713792,-0.000161280224664,8.45541230973e-09,2.78637769933e-08,9.80000020589
252730000000,0.00025673487665,-0.000174318614039,-0.000161226613859,1.12533938178e-08,3.34137810699e-08,9.80000020529
252740000000,0.000256140396048,-0.000179509495951,-0.000159421915998,1.27355423395e-08,3.61364982529e-08,9.79999996286
252750000000,0.000260486860659,-0.000182061158298,-0.000166794415784,1.37571095632e-08,3.79324892148e-08,9.79999980036
252760000000,0.000268695920776,-0.000179507460335,-0.000161342311717,1.44417688244e-08,3.89283107208e-08,9.79999969143
252770000000,0.000270432788087,-0.000181453790365,-0.000161664793361,1.48871961925e-08,3.9287257749e-08,9.79999961841
252780000000,0.000264136635906,-0.00018348003022,-0.000165783644829,1.51535155869e-08,3.60702760377e-08,9.79999977153
252790000000,0.00026691066517,-0.000184445751785,-0.000169027600727,1.52771309998e-08,3.24081058834e-08,9.79999982952
252800000000,0.000268227156277,-0.000187684587982,-0.000163109926428,1.52955275661e-08,2.84730531069e-08,9.79999984833
252810000000,0.000271584323364,-0.000190036849103,-0.000163014151722,1.52568118694e-08,2.42892432988e-08,9.79999985192
252820000000,0.000270673726068,-0.000195000266003,-0.000167619588178,1.52045740021e-08,1.98831450961e-08,9.79999985028
252830000000,0.000266388718244,-0.000195651001355,-0.000166071885901,1.30522550009e-08,1.37722568101e-08,9.80000004942
252840000000,0.000267414173415,-0.000195190117784,-0.000164589900423,1.0674674459e-08,7.56525283056e-09,9.80000013745
252850000000,0.000271299737518,-0.000187822518242,-0.000157801682992,8.13516278516e-09,1.3832560176e-09,9.80000017602
252860000000,0.000275585664557,-0.000185743116728,-0.000156512849093,5.50975124363e-09,-4.78398478665e-09,9.80000019269
252870000000,0.000270525894786,-0.000182606928565,-0.000150435743006,2.85727569334e-09,-1.09678947633e-08,9.80000019975
252880000000,0.000269847175608,-0.000182292116883,-0.000145730484374,1.97040401331e-10,-1.7128010199e-08,9.80000020262
252890000000,0.000266748754403,-0.000174836712561,-0.000151332760484,-1.20584637156e-09,-2.0299723429e-08,9.79999996107
252900000000,0.000267283816723,-0.000178461653113,-0.000148503692278,-2.19635075316e-09,-2.24430016723e-08,9.79999979916
252910000000,0.000266717334989,-0.00017782359943,-0.000153122564236,-2.85015770327e-09,-2.38518510842e-08,9.79999969062
252920000000,0.000270388643501,-0.000177121148888,-0.000154543222785,-3.2412763315e-09,-2.47412981793e-08,9.79999961787
252930000000,0.000268418476087,-0.00018207241796,-0.000154790576234,-3.45202311279e-09,-2.52249930363e-08,9.7999995691
252940000000,0.000268787558494,-0.000180805841734,-0.000158525456162,-3.55422720048e-09,-2.53697703859e-08,9.79999953641
252950000000,0.000267085800701,-0.000185840921363,-0.000158948998824,-3.58724165143e-09,-2.52690861767e-08,9.7999995145
252960000000,0.000266484816556,-0.000185766931233,-0.000158329267235,-3.55966345965e-09,-2.50540541713e-08,9.79999949981
252970000000,0.00026934380498,-0.000181054566823,-0.000158813257403,-3.47479880318e-09,-2.48330525745e-08,9.79999948996
252980000000,0.000270354348402,-0.000180703472083,-0.000156634996827,-3.35504585434e-09,-2.46361829998e-08,9.79999948336
252990000000,0.000275676803437,-0.000181198937985,-0.000156212389497,-3.239155597e-09,-2.44276220377e-08,9.79999947894
253000000000,0.000271391563256,-0.000179765130926,-0.000156247764373,-3.15597845627e-09,-2.41757255561e-08,9.79999947597
253010000000,0.000273603024902,-0.000177854217887,-0.00015482519461,-3.10492628859e-09,-2.3912684885e-08,9.79999947399
253020000000,0.000274137807042,-0.000172955566663,-0.000149486522948,-3.06381496341e-09,-2.05265484393e-08,9.79999967473
253030000000,0.000273693951281,-0.00017368857908,-0.000147538649669,-3.01678063569e-09,-1.69453258571e-08,9.79999976464
253040000000,0.000270601400147,-0.000174295214018,-0.000146942615843,-2.97467295709e-09,-1.32135288537e-08,9.79999980484
253050000000,0.000263762337533,-0.000174450191212,-0.000153594015762,-2.96611832767e-09,-9.34061457617e-09,9.79999982277
253060000000,0.000270289048603,-0.000175971426998,-0.000159538398284,-3.008663019e-09,-5.38236115676e-09,9.79999983073
253070000000,0.000265759028956,-0.000179082109515,-0.000157206657563,-9.83834712494e-10,1.69977165528e-10,9.80000003633
253080000000,0.000259628637269,-0.000171962778006,-0.000153557655911,1.2548627134e-09,5.81359994736e-09,9.80000012867
253090000000,0.000263128576958,-0.000172468887406,-0.000152501157541,3.6469084078e-09,1.15285796374e-08,9.80000017014
253100000000,0.000264362298661,-0.000169526871553,-0.000152335304266,6.1154125939e-09,1.73280622155e-08,9.80000018875
253110000000,0.000264149141143,-0.000169355274164,-0.000158822884893,8.60615575111e-09,2.31631091384e-08,9.80000019711
253120000000,0.000264305150455,-0.000164928586047,-0.000158282170021,9.83133412803e-09,2.60397216698e-08,9.79999995737
253130000000,0.000264868508419,-0.000170031775362,-0.000159374191714,1.06630975177e-08,2.78988528709e-08,9.79999979668
253140000000,0.000267388575127,-0.000161035255884,-0.000153552713756,1.11882659671e-08,2.90680486082e-08,9.79999968896
253150000000,0.0002651351338,-0.000153885764456,-0.000156669989689,1.14706167991e-08,2.98146154217e-08,9.79999961675
253160000000,0.000267472459025,-0.000156959433138,-0.00016113727808,1.1569494074e-08,2.70638108817e-08,9.79999977043
253170000000,0.000263479879202,-0.00015411966214,-0.000154928512117,1.15442818689e-08,2.3670607835e-08,9.79999982879
253180000000,0.000261602943265,-0.000151778911319,-0.000148214586043,1.14427692956e-08,1.9784161584e-08,9.79999984784
253190000000,0.000256822575713,-0.00015197404275,-0.000148002925761,1.1291059122e-08,1.56318009165e-08,9.79999985159
253200000000,0.000253058435282,-0.000154137760364,-0.000147881496332,1.10983419419e-08,1.14191583332e-08,9.79999985006
253210000000,0.000255215152018,-0.000155997003157,-0.000138219713,8.75772081154e-09,5.63690136179e-09,9.80000004928
253220000000,0.000250952522166,-0.000153796563636,-0.000134767185163,6.1965462475e-09,-3.13403344264e-10,9.80000013736
253230000000,0.000245410938045,-0.000157698082954,-0.000133505889172,3.50385144896e-09,-6.40775903642e-09,9.80000017596
253240000000,0.000239230951631,-0.000159357547724,-0.00013371763172,7.23295201052e-10,-1.25489860316e-08,9.80000019265
253250000000,0.000237046256299,-0.000155903342234,-0.000135111083569,-2.12192106121e-09,-1.86279439909e-08,9.80000019972
253260000000,0.000238701819655,-0.000157174120211,-0.000137532237737,-3.71668965534e-09,-2.36555931576e-08,9.80000008014
253270000000,0.000237414168358,-0.000166559194069,-0.000139546052237,-4.89421867658e-09,-2.6442438488e-08,9.79999987897
253280000000,0.000234890681946,-0.000164685327416,-0.000137879668347,-5.74795130574e-09,-2.83685188036e-08,9.79999974412
253290000000,0.000234816663742,-0.000162608550896,-0.000140736916406,-6.3743946073e-09,-2.95938988973e-08,9.79999965373
253300000000,0.000236559316523,-0.000160448326175,-0.000139594245632,-6.84788651452e-09,-3.02501061046e-08,9.79999959314
253310000000,0.000231404643336,-0.00016242437572,-0.000144745881118,-5.09697601166e-09,-2.57110881289e-08,9.7999999566
253320000000,0.000230516336666,-0.000165720087882,-0.000142812465965,-3.01988038706e-09,-2.04980859035e-08,9.80000011096
253330000000,0.000232141187807,-0.000159762180918,-0.000141085684865,-7.16814884055e-10,-1.48330980835e-08,9.80000017432
253340000000,0.000234008650886,-0.000163126316845,-0.000145033611929,1.71268799135e-09,-8.82084917643e-09,9.80000019877
253350000000,0.000236839705227,-0.000161125462342,-0.000144674940739,4.20500161923e-09,-2.56500879065e-09,9.80000020706
253360000000,0.000237931665069,-0.000156528790381,-0.000141275278805,6.73859735904e-09,3.79009782512e-09,9.80000020898
253370000000,0.000242133228198,-0.000161941483638,-0.000141716789677,9.30355578996e-09,1.01289867605e-08,9.80000020863
253380000000,0.000243491141017,-0.000172289709858,-0.000140959019338,1.18731985313e-08,1.64362969784e-08,9.80000020766
253390000000,0.000245922118618,-0.000172351029949,-0.000142067977487,1.44130559974e-08,2.27573973249e-08,9.80000020668
253400000000,0.000239569627692,-0.000173062497566,-0.000140908463975,1.56512541345e-08,2.6217792994e-08,9.7999999638
253410000000,0.000241571429338,-0.000170339003407,-0.000139569422115,1.64781380638e-08,2.8657563698e-08,9.79999980098
253420000000,0.00023277551914,-0.000166607431766,-0.000137363830675,1.70161499023e-08,3.02587894117e-08,9.79999969185
253430000000,0.000230505433709,-0.000169757836962,-0.000140690010803,1.73294722027e-08,3.12766485205e-08,9.79999961869
253440000000,0.000231027183793,-0.000166077277201,-0.000146956850938,1.53345565443e-08,2.71955885835e-08,9.79999997366
253450000000,0.000237040729408,-0.000163036943483,-0.000145120489681,1.29743886209e-08,2.24542198534e-08,9.80000012237
253460000000,0.000235360517304,-0.000171882926775,-0.0001371899985,1.03965951555e-08,1.71769654236e-08,9.80000018195
253470000000,0.000233163511862,-0.000170231986742,-0.000138045765087,7.70887676284e-09,1.14748538322e-08,9.80000020388
253480000000,0.000242187552438,-0.000173746705428,-0.000138150662289,4.95680051672e-09,5.53146959744e-09,9.80000021048
253490000000,0.000238267658183,-0.000170916295111,-0.000136630769975,2.15330927943e-09,-4.62176934192e-10,9.80000021127
253500000000,0.000241656886205,-0.000172017295507,-0.000139427623261,-6.78854308785e-10,-6.41816647361e-09,9.80000021017
253510000000,0.000248716635255,-0.000177633139962,-0.000137375171269,-3.49913103863e-09,-1.23542863755e-08,9.80000020869
253520000000,0.000246854905446,-0.000169033283545,-0.000138977460439,-6.27900198094e-09,-1.82917845504e-08,9.80000020737
253530000000,0.000242076479735,-0.000166376948713,-0.000136551689676,-9.02456684443e-09,-2.41806890343e-08,9.80000020634
253540000000,0.000245750783088,-0.000167231537958,-0.000136077899504,-1.17579581797e-08,-2.99459764801e-08,9.80000020558
253550000000,0.000243735684862,-0.000174525988647,-0.000130607441928,-1.44804648756e-08,-3.55938541134e-08,9.80000020504
253560000000,0.000247030788748,-0.000178388382351,-0.00013154579386,-1.7165190743e-08,-4.12252259711e-08,9.80000020467
253570000000,0.000239990608947,-0.000182349941294,-0.000129946981713,-1.97932594263e-08,-4.69212619682e-08,9.80000020441
253580000000,0.000245735168341,-0.000179676804391,-0.000132526797167,-2.23904782731e-08,-5.26364033406e-08,9.80000020424
253590000000,0.000246293618137,-0.000175024696783,-0.000128090178279,-2.16476700281e-08,-5.05464714997e-08,9.80000036623
253600000000,0.000246309002158,-0.000182420655507,-0.00013119364245,-2.03278421378e-08,-4.68952037944e-08,9.80000038555
253610000000,0.000252362366753,-0.000181933987661,-0.000127280636035,-1.85491210161e-08,-4.22513619927e-08,9.80000035838
253620000000,0.000256859928402,-0.000183810404011,-0.00013036842617,-1.64087085005e-08,-3.70497263352e-08,9.80000032215
253630000000,0.000252565625506,-0.000187375723238,-0.000124627436726,-1.40310580194e-08,-3.14767334042e-08,9.80000028977
253640000000,0.000248938097609,-0.000188176699202,-0.000122771466485,-1.15456974164e-08,-2.55673332126e-08,9.80000026442
253650000000,0.000248266310362,-0.000191621544191,-0.000119054483139,-9.03311428166e-09,-1.93865933645e-08,9.80000024579
253660000000,0.000249352039317,-0.000195103550204,-0.000119629791369,-6.51033332155e-09,-1.31032021969e-08,9.80000023257
253670000000,0.000251435823043,-0.000188753218226,-0.000120983392098,-3.97015606213e-09,-6.89163469939e-09,9.80000022338
253680000000,0.000244767816554,-0.000191213446264,-0.000120228305802,-1.42615038251e-09,-8.07831623497e-10,9.80000021707
253690000000,0.000247260104258,-0.000188401350315,-0.00012044438015,1.08506174227e-09,5.20056159802e-09,9.80000021278
253700000000,0.000253030578933,-0.00018975434315,-0.000118383230238,3.53981049212e-09,1.11778543252e-08,9.80000020987
253710000000,0.000255378455855,-0.000184410539195,-0.000114800359513,5.9496423202e-09,1.70860874158e-08,9.8000002079
253720000000,0.000252282251635,-0.000182611698993,-0.000112394404453,8.3396637521e-09,2.28596384892e-08,9.80000020658
253730000000,0.00024951004529,-0.000177163667374,-0.000113924448362,1.0712423435e-08,2.85112582339e-08,9.80000020569
253740000000,0.000245924717956,-0.000173884761373,-0.000109824771058,1.30447089295e-08,3.2229492681e-08,9.80000008411
253750000000,0.000245493644783,-0.000174132704985,-0.000115597961375,1.53246811937e-08,3.53650911959e-08,9.80000000261
253760000000,0.000249067229349,-0.000173475492927,-0.000121360659716,1.75821352677e-08,3.8011820067e-08,9.79999994798
253770000000,0.000245261418107,-0.000182828814357,-0.000119491230383,1.98669921845e-08,4.02031648925e-08,9.79999991137
253780000000,0.000246394502799,-0.000181023930625,-0.000120319994789,2.09346653379e-08,3.78858699075e-08,9.79999996787
253790000000,0.000247698268211,-0.00017962190115,-0.000114390979198,2.15942058833e-08,3.48185490425e-08,9.79999996112
253800000000,0.000246687207331,-0.000177725071257,-0.000116125323781,2.19044099593e-08,3.13285884597e-08,9.79999993653
253810000000,0.000246939675674,-0.000177807561336,-0.000116524923657,2.19650924955e-08,2.75417001682e-08,9.79999991104
253820000000,0.000248812877969,-0.000174616538394,-0.000119994329721,2.19090171938e-08,2.34777452802e-08,9.79999988991
253830000000,0.000246002191654,-0.000183887571452,-0.000118199633222,1.97307152398e-08,1.75937022361e-08,9.80000007599
253840000000,0.000245034704115,-0.000182508363825,-0.000121462076815,1.73310430007e-08,1.14871117712e-08,9.80000015526
253850000000,0.00024699424921,-0.000182860321092,-0.000120221347092,1.47339537206e-08,5.35870034246e-09,9.80000018796
253860000000,0.000241622379186,-0.000184542375592,-0.000118267429736,1.19877344486e-08,-7.27378058926e-10,9.8000002007
253870000000,0.0002433351729,-0.000179281153491,-0.00011375226766,9.18790136687e-09,-6.80478556473e-09,9.80000020511
253880000000,0.000250073838254,-0.000180564982588,-0.000118427546634,6.42620661091e-09,-1.28849521357e-08,9.80000020622
253890000000,0.000257477149096,-0.000180237203403,-0.000121018251437,3.73453241302e-09,-1.89040206795e-08,9.80000020612
253900000000,0.000258333522058,-0.00017769149816,-0.000122615922373,1.08927043871e-09,-2.47949987296e-08,9.80000020569
253910000000,0.000264824312306,-0.000171365218006,-0.000122600419782,-1.53644117895e-09,-3.05814425218e-08,9.80000020523
253920000000,0.000261629374826,-0.000167259699866,-0.000116357015117,-4.13350778566e-09,-3.63550707147e-08,9.80000020484
253930000000,0.00026450562032,-0.000162892280464,-0.000116576492337,-5.4061025239e-09,-3.9289665014e-08,9.79999996256
253940000000,0.000264282473648,-0.000159223523177,-0.000115431715544,-6.2066189745e-09,-4.1235248114e-08,9.79999980016
253950000000,0.000262222368448,-0.000167373483645,-0.000119690428583,-6.65289676937e-09,-4.23481751301e-08,9.79999969129
253960000000,0.000262079989575,-0.000168594113245,-0.00012254094214,-6.84280030685e-09,-4.28673980136e-08,9.79999961832
253970000000,0.000258003315901,-0.000164474839176,-0.000131500238358,-6.84612857529e-09,-3.98912664928e-08,9.79999977147
253980000000,0.000257774728102,-0.000168286415154,-0.000136425804013,-6.71112046237e-09,-3.64833865019e-08,9.79999982948
253990000000,0.000258043742453,-0.000175707504081,-0.000135601835417,-6.47709197381e-09,-3.27426858087e-08,9.7999998483
254000000000,0.000255712096079,-0.000177018050209,-0.00013835659915,-6.1805135591e-09,-2.86929026349e-08,9.7999998519
254010000000,0.000253365786618,-0.000175118302117,-0.000136073137426,-5.8509828545e-09,-2.44251727952e-08,9.79999985026
254020000000,0.000258607273223,-0.000168968505011,-0.00013174051852,-7.61498136619e-09,-1.85130030773e-08,9.80000004942
254030000000,0.000255948847126,-0.000163617401208,-0.000128012871975,-9.59578969297e-09,-1.25461094656e-08,9.80000013745
254040000000,0.00024987689787,-0.000157628347182,-0.000121449829161,-1.17179787028e-08,-6.5835800713e-09,9.80000017602
254050000000,0.000246159277073,-0.000157092754133,-0.000123503463587,-1.39289239174e-08,-5.93641797516e-10,9.8000001927
254060000000,0.000236932243783,-0.000156139883908,-0.000123801424368,-1.62178800998e-08,5.42022274036e-09,9.80000019975
254070000000,0.000230159551277,-0.000153228104763,-0.000121133208572,-1.85904439868e-08,1.13799631922e-08,9.80000020262
254080000000,0.000235474214221,-0.000155569957002,-0.000125931815828,-2.10268274486e-08,1.7217104756e-08,9.80000020371
254090000000,0.000231686330176,-0.000157516668246,-0.00012583039958,-2.34748762412e-08,2.29579125638e-08,9.80000020407
254100000000,0.000237581472929,-0.000154476876723,-0.000125591473692,-2.46256545028e-08,2.58219162051e-08,9.79999996205
254110000000,0.000231971231587,-0.000156674910264,-0.000133584084602,-2.53612965817e-08,2.77538901695e-08,9.79999979981
254120000000,0.000237044524172,-0.000158432329113,-0.000135826503815,-2.58465318904e-08,2.89092209241e-08,9.79999969106
254130000000,0.000238114746637,-0.000155051552209,-0.000136890363101,-2.61883534884e-08,2.94334401872e-08,9.79999961816
254140000000,0.000241652709791,-0.000153770363344,-0.000138223235162,-2.64105629835e-08,2.9537651353e-08,9.7999995693
254150000000,0.000239411692876,-0.000154856075137,-0.000141998303974,-2.64996294385e-08,2.94465679211e-08,9.79999953654
254160000000,0.000239917072466,-0.000156309194532,-0.000141221185324,-2.43624590453e-08,2.76963494381e-08,9.79999971666
254170000000,0.000241312449991,-0.00015749722824,-0.000139705950907,-2.19890644981e-08,2.57088631677e-08,9.79999979275
254180000000,0.000247126375314,-0.000160098871279,-0.000146055384912,-1.95286177969e-08,2.34862682115e-08,9.79999982368
254190000000,0.000246163647268,-0.000154012040177,-0.000143950414372,-1.70397394184e-08,2.11006485262e-08,9.7999998354
254200000000,0.000240654591121,-0.000145398495439,-0.000141402866396,-1.45128723255e-08,1.55012471663e-08,9.80000004128
254210000000,0.000238709439571,-0.000148855888911,-0.00014087480343,-1.19408187008e-08,9.69573902321e-09,9.80000013281
254220000000,0.000239483003273,-0.000149274757487,-0.000138808749823,-9.36229686586e-09,3.76611888599e-09,9.80000017328
254230000000,0.000232826890408,-0.000142272780798,-0.000138291732828,-6.83757626923e-09,-2.28915343556e-09,9.80000019102
254240000000,0.000229664141063,-0.000143143961241,-0.000142099397655,-4.39437990792e-09,-8.42920910054e-09,9.8000001987
254250000000,0.000230680538644,-0.000139966534706,-0.00014083276355,-2.01273846893e-09,-1.45484726225e-08,9.80000020195
254260000000,0.000232030298242,-0.000139453180517,-0.00013298724635,3.39006254828e-10,-2.05694023394e-08,9.80000020328
254270000000,0.000231595417111,-0.000143838618702,-0.000131800173663,2.66505604252e-09,-2.65140395193e-08,9.80000020379
254280000000,0.000226812098712,-0.000143273206499,-0.00012966409434,4.94523992939e-09,-3.24504883519e-08,9.80000020396
254290000000,0.000232622907187,-0.000141451407778,-0.000122872483492,7.17256825597e-09,-3.83830445002e-08,9.80000020399
254300000000,0.000231201732336,-0.00014087267247,-0.000123818922383,1.02175129559e-08,-3.97436297057e-08,9.80000016407
254310000000,0.000230720640887,-0.000145921305117,-0.000121287350286,1.30768688688e-08,-3.98721095441e-08,9.80000009265
254320000000,0.000230828019576,-0.00014554836963,-0.000113107721946,1.57907447127e-08,-3.9155013067e-08,9.80000002471
254330000000,0.000236633698838,-0.000149393459,-0.000109924184509,1.83534717875e-08,-3.79332108639e-08,9.79999997015
254340000000,0.000240303374168,-0.000144953844829,-0.000117885853512,2.07673406033e-08,-3.32119276949e-08,9.8000001316
254350000000,0.0287413763814,0.0464412551073,0.00511040593811,-0.00806574187426,0.00493630902804,10.132049752
254360000000,0.0726724207687,0.117783345973,0.0131269529654,-0.0181494691704,0.0104155715296,10.2024895938
254370000000,0.124720003492,0.202486699268,0.0226333663486,-0.0299250286328,0.0154561296942,10.1569545873
254380000000,0.18141420536,0.294677684277,0.0329466787521,-0.0430859108374,0.0197237705702,10.0797643889
254390000000,0.240869541791,0.390641696961,0.0437015347829,-0.0572697431797,0.0231412664799,10.0059603959
254400000000,0.296728067796,0.482618514845,0.054607878962,-0.0711856438138,0.0249012113458,9.9439740565
254410000000,0.350024105205,0.572635563567,0.0655707179028,-0.0854780336993,0.0257531326322,9.89585060806
254420000000,0.402353725115,0.662200470924,0.0765421523013,-0.100116599687,0.026047636025,9.86038321891
254430000000,0.455124596613,0.751434786727,0.0874826373612,-0.114938388547,0.0260275907039,9.8346276732
254440000000,0.508002548952,0.839737166358,0.0983570532643,-0.129798485724,0.0256460622817,9.8164101571
254450000000,0.535529869901,0.902233360918,0.108728203292,-0.141317880251,0.022291792788,9.94509739461
254460000000,0.548515009355,0.951570824318,0.118795452331,-0.150684748755,0.0175453191657,9.9587720732
254470000000,0.554179174678,0.994148100153,0.128682323879,-0.158613352277,0.0123941145833,9.93074960507
254480000000,0.556490652957,1.03224564759,0.138448291151,-0.165437353867,0.00731127137644,9.8939264924
254490000000,0.532959334858,1.04472554534,0.147743448052,-0.168754094255,0.00033866279749,10.0029816374
254500000000,0.489914675835,1.03897183325,0.156695166881,-0.168678274885,-0.00812160677224,10.0317137294
254510000000,0.431821565936,1.02008465683,0.1653987742,-0.1660482468,-0.0173414560383,10.0288692902
254520000000,0.366458423559,0.994594742654,0.17401311189,-0.161814111918,-0.0265863942477,9.99025125969
254530000000,0.297728487669,0.964810951752,0.182595128588,-0.156448323184,-0.0354365336534,9.94677009261
254540000000,0.226193726359,0.931473816148,0.191186952628,-0.150243607925,-0.0439634724209,9.9104303591
254550000000,0.143656834711,0.885685700001,0.199471598218,-0.141819737598,-0.0518648237834,9.94231561469
254560000000,0.0548944624552,0.833805050756,0.207638789643,-0.132482146844,-0.0601829222543,9.92921030559
254570000000,-0.0357746177505,0.778877869918,0.21578057651,-0.122641700722,-0.0681599845898,9.90353355534
254580000000,-0.126312780265,0.721432617945,0.223919492954,-0.112384476086,-0.0756107938257,9.87857487649
254590000000,-0.217593708192,0.661662580175,0.232066734085,-0.101826311344,-0.0827871340531,9.85904965904
254600000000,-0.303603931958,0.596908733465,0.239873659349,-0.0905580527432,-0.0868365843884,9.86241763615
254610000000,-0.386828220648,0.530484345221,0.247504764415,-0.0795485174236,-0.0910233978171,9.84653857917
254620000000,-0.467137290978,0.463160880535,0.255034103157,-0.0687608590383,-0.0948923656119,9.82711194892
254630000000,-0.545173326607,0.394122643379,0.262504504698,-0.0580224242368,-0.0984676696146,9.81065374424
254640000000,-0.622901806542,0.323213143385,0.269918662658,-0.0473477425643,-0.102000637451,9.79845490027
254650000000,-0.683141285662,0.252579004054,0.276917112442,-0.0380353980108,-0.101487762937,9.84326518697
254660000000,-0.728730084469,0.183495223126,0.283591984074,-0.0293557241669,-0.09959632727,9.84802701051
254670000000,-0.764536163925,0.115112407605,0.290061259159,-0.0210693260106,-0.0970738457774,9.82532437295
254680000000,-0.794582960797,0.0462126585648,0.296372570706,-0.0131218188222,-0.0942858878366,9.79869951119
254690000000,-0.822630298082,-0.0232314090582,0.302582130467,-0.00558210121732,-0.0916009649437,9.77528421459
254700000000,-0.83434212752,-0.0894519411721,0.308408522319,-0.000140062796467,-0.0863314382575,9.80930997009
254710000000,-0.83635763414,-0.153267372407,0.313995529656,0.004935125391,-0.0804976607122,9.79723503759
254720000000,-0.831450553339,-0.2163909389,0.319416100148,0.00974235302858,-0.0742708763433,9.77352917204
254730000000,-0.822211570175,-0.280278487469,0.324724511388,0.0143871316926,-0.0679552823739,9.75087481035
254740000000,-0.800996786206,-0.341244730902,0.329677762068,0.017023337409,-0.0603499094839,9.76958946439
254750000000,-0.773721075861,-0.3994048042,0.334420525094,0.0193934233536,-0.0525997035631,9.75697228322
254760000000,-0.742304958838,-0.45491491186,0.339026431982,0.0213988394488,-0.0447555764872,9.73717911297
254770000000,-0.707471956349,-0.509200109734,0.343533053995,0.0232422452496,-0.0368662132927,9.71939512255
254780000000,-0.670712145481,-0.5639412313,0.347981469648,0.0251095140569,-0.0291378414706,9.70531622911
254790000000,-0.62957888587,-0.615151466561,0.352153617475,0.0252048636662,-0.0215809122021,9.71575887229
254800000000,-0.586495723365,-0.663777567129,0.356187338783,0.0253910237424,-0.0141209056784,9.70911128718
254810000000,-0.541276203566,-0.709943937709,0.360122876533,0.0254955626208,-0.00663482839168,9.69891015956
254820000000,-0.49341728736,-0.754510065181,0.364010430996,0.0255986119333,0.000934156145304,9.69028015275
254830000000,-0.445263132728,-0.791900799641,0.367590011148,0.0237253828133,0.00721522925296,9.72848177064
254840000000,-0.398233251146,-0.825785910148,0.371025290781,0.0221575116178,0.0133166026693,9.73179330597
254850000000,-0.352961193643,-0.857290257325,0.374395825924,0.0207046925365,0.0190770591387,9.72325787963
254860000000,-0.308191324841,-0.886773578907,0.377730601086,0.0193132983643,0.0246947647683,9.71299409411
254870000000,-0.262125552662,-0.915028078095,0.381056000742,0.018074148141,0.0303854266965,9.7045864309
254880000000,-0.21961203108,-0.934875172874,0.384138704931,0.015301732169,0.0341850996511,9.76527914007
254890000000,-0.18065422439,-0.948901213542,0.387058045707,0.0123590896349,0.0375317721143,9.79024756028
254900000000,-0.144933933698,-0.959211961162,0.389899261327,0.00946053583397,0.040577962704,9.78722556879
254910000000,-0.111454140591,-0.966578058373,0.392700835796,0.00659590901914,0.0433872775205,9.77666501924
254920000000,-0.0784458151088,-0.972070894329,0.395497118738,0.00389492095627,0.0461739186547,9.76617749444
254930000000,-0.0489949247108,-0.970804645937,0.398099187298,0.000432408372805,0.0475000254129,9.81528556552
254940000000,-0.0213161263941,-0.966771778264,0.400616167925,-0.00284009226237,0.0488907404062,9.82336369395
254950000000,0.0046512325849,-0.961071299215,0.403106400614,-0.00596703418302,0.0501415610613,9.81704699945
254960000000,0.029092187659,-0.953348478189,0.405576542143,-0.00905738609236,0.0512474438811,9.80801571913
254970000000,0.0529039810468,-0.943597276044,0.408048534836,-0.0120877037329,0.0523400429135,9.80059429478
254980000000,0.0744351942932,-0.927980910516,0.410341618068,-0.0156095460858,0.0523146892934,9.84398052815
254990000000,0.0948572562332,-0.910374649739,0.412554992178,-0.0189265659801,0.0524803455076,9.85388537933
255000000000,0.114149855101,-0.892381765809,0.414732788835,-0.0219774608155,0.0526486049266,9.85100886913
255010000000,0.132408437287,-0.873690743658,0.416888454718,-0.0248958661446,0.0527957771198,9.84476270099
255020000000,0.148801441524,-0.848828812142,0.418827019355,-0.0283965522665,0.0518547027392,9.88871174677
255030000000,0.164860657319,-0.820055622261,0.420646920081,-0.032046279415,0.0513569259728,9.90063128651
255040000000,0.180809312015,-0.789669348772,0.422401690979,-0.0355780586562,0.0510772786231,9.9005032489
255050000000,0.195934156685,-0.759426350334,0.424135542258,-0.0388250369285,0.0507991793453,9.89612613815
255060000000,0.209785897709,-0.729655371318,0.425850529216,-0.0418272220944,0.0504579761675,9.8908521722
255070000000,0.222311609107,-0.697077395722,0.427350049245,-0.0449455021714,0.0492359802282,9.92161031572
255080000000,0.235028830274,-0.662021850925,0.42873244032,-0.0482158633001,0.0485609497262,9.92966263682
255090000000,0.248522592513,-0.625275918303,0.430056419022,-0.051506593074,0.0482560608113,9.92953750056
255100000000,0.261969276291,-0.588151157914,0.431347250458,-0.0546411208511,0.0480556049223,9.92675877847
255110000000,0.274121554817,-0.551505686714,0.432618526817,-0.0575520048546,0.0477582718326,9.92340723523
255120000000,0.283851770417,-0.514931860618,0.433679261392,-0.0601358030649,0.0465796450076,9.94674790422
255130000000,0.292748609575,-0.477867855603,0.434625540314,-0.0627519672325,0.0457880966522,9.95124943336
255140000000,0.302322905966,-0.440005819142,0.435499288128,-0.0653939375149,0.045391881035,9.94927367456
255150000000,0.312723160282,-0.401709511462,0.436336238657,-0.0679769535453,0.0452464307322,9.94558066427
255160000000,0.32113382318,-0.364632728355,0.437003382872,-0.070071983246,0.0444360950116,9.95735830276
255170000000,0.326783795178,-0.328795830361,0.437544917738,-0.0719534270915,0.0434721929254,9.9600854554
255180000000,0.329951346162,-0.293907495652,0.437974870198,-0.0736606026681,0.0423932770147,9.95952304981
255190000000,0.332462709869,-0.259294153798,0.438330006609,-0.0753338701351,0.0415400337317,9.9550887084
255200000000,0.335582022662,-0.22483370016,0.438641200786,-0.0769524968916,0.0409602704539,9.95009708111
255210000000,0.339162815571,-0.190644722681,0.438930156256,-0.0784894417782,0.040525668775,9.94567162072
255220000000,0.340074872629,-0.158528369072,0.439072710256,-0.079486120462,0.0394940854807,9.95456385414
255230000000,0.338532339161,-0.127379408355,0.439131738502,-0.0804463757188,0.0383890349033,9.95262455691
255240000000,0.335450213199,-0.0965835450917,0.439132354504,-0.0813973099209,0.037295231034,9.94787644754
255250000000,0.332156862467,-0.0660924272558,0.439103176578,-0.0823102661115,0.0363503468347,9.9430512197
255260000000,0.329373709385,-0.0361145950717,0.439044289191,-0.0831505221905,0.0355791231815,9.93889023454
255270000000,0.32449612288,-0.00919660309437,0.438825495515,-0.0833150434017,0.0343824858694,9.94964183738
255280000000,0.317787361656,0.0162482648866,0.438512362394,-0.0834483798166,0.033127186396,9.94690712603
255290000000,0.309478296822,0.0412503607947,0.438149235261,-0.0836242905119,0.0318021625549,9.94068824408
255300000000,0.300286309077,0.0660902496656,0.437749666285,-0.0838283958616,0.0304976075816,9.93456054531
255310000000,0.291027912554,0.0904828719418,0.437331128694,-0.0839955876281,0.0292950031144,9.92949407442
255320000000,0.280437625551,0.111337185762,0.436773270648,-0.0834690536127,0.0279198722706,9.93795425036
255330000000,0.268814846793,0.129608548566,0.43611455599,-0.0827422268557,0.0265147232425,9.93617792444
255340000000,0.256221164707,0.146815130471,0.435398981104,-0.0820475221553,0.0250654140411,9.92917082654
255350000000,0.24285990675,0.163820893101,0.434650278626,-0.0814395269054,0.0235965380147,9.92183479895
255360000000,0.229163728518,0.180684280182,0.433880962194,-0.0808750340991,0.0221614843434,9.91568779894
255370000000,0.215235080573,0.194827305373,0.433012455028,-0.0798168066952,0.0207947113192,9.91833331814
255380000000,0.20116795657,0.206990544603,0.432095578835,-0.0786617019599,0.019443112011,9.91393303626
255390000000,0.18686685446,0.218012207438,0.431150038487,-0.0775035344373,0.0180909108341,9.90824179151
255400000000,0.172334412032,0.228810887813,0.430189561957,-0.076440940071,0.0167434024972,9.90315864293
255410000000,0.157718075779,0.239844121146,0.429217338054,-0.0754967643124,0.0154234622424,9.899093023
255420000000,0.144003981881,0.248731172517,0.428144699638,-0.0741406230259,0.0143782379144,9.90143659875
255430000000,0.13069950151,0.255941665136,0.427027761669,-0.0727222547807,0.0133424572591,9.89776893919
255440000000,0.117445750074,0.261789056257,0.425874687005,-0.0712537416908,0.0123004052583,9.89304022725
255450000000,0.104166949663,0.266905661942,0.424714556143,-0.0698175855152,0.0112611243877,9.88888501192
255460000000,0.0921784175116,0.270440653649,0.423488844037,-0.068168623916,0.0105338118169,9.88928532647
255470000000,0.0813579732486,0.273111640441,0.422187159304,-0.0665336938986,0.00992695053837,9.88655991698
255480000000,0.0714601488965,0.274858409482,0.42085525472,-0.064858947164,0.00941760765369,9.88302528236
255490000000,0.0618923574008,0.275617731334,0.419504157802,-0.0631468941794,0.00889555605357,9.87886157775
255500000000,0.0523156917217,0.275475862417,0.4181306724,-0.0614106822595,0.00834799416218,9.87536156833
255510000000,0.0428008391548,0.274918327326,0.416758833364,-0.0597268314873,0.00780307696598,9.87271554833
255520000000,0.0346013291434,0.273540141294,0.415325028443,-0.05796724526,0.00755224013783,9.8741133176
255530000000,0.027321590681,0.272001807223,0.413853373186,-0.0562949866754,0.0073371067613,9.87189023463
255540000000,0.0204891399344,0.270224423415,0.412367704617,-0.0546552731774,0.00711829787806,9.86896371576
255550000000,0.0136650484861,0.267855069249,0.410868260674,-0.0529957940745,0.00685407906527,9.86643096543
255560000000,0.00667826425635,0.264866635915,0.409365230857,-0.0513302395167,0.00654489595081,9.86455755746
255570000000,0.000499291638579,0.261027911987,0.407811537746,-0.0496115511251,0.00644523389856,9.86662794123
255580000000,-0.00494266735615,0.257148498837,0.406235314514,-0.0479875979452,0.00636926105862,9.86512340441
255590000000,-0.00979506153701,0.253479025265,0.404636554157,-0.0464552778133,0.00631435828644,9.8627415092
255600000000,-0.0144164477449,0.249735713628,0.403033109953,-0.0449539749261,0.00623705392443,9.86052877076
255610000000,-0.0191630490531,0.245541173766,0.40142482687,-0.0434352559964,0.0061031633143,9.85883375911
255620000000,-0.0234219178065,0.24024380365,0.399752971032,-0.0418173796821,0.00612627844804,9.86157698766
255630000000,-0.027271896341,0.234544185411,0.398049960939,-0.0402362100621,0.00612977736646,9.86019154569
255640000000,-0.0306126778483,0.229003170511,0.39632902214,-0.0387494138472,0.00615260097256,9.8577497152
255650000000,-0.0335476615116,0.223736996563,0.394595069212,-0.0373428676603,0.00618379770155,9.85538227779
255660000000,-0.035890817095,0.217973018576,0.392805353069,-0.0358930779622,0.00634132065656,9.85682154192
255670000000,-0.038125280701,0.211567580399,0.390978843294,-0.0343981322796,0.00642683326522,9.85480861283
255680000000,-0.040350564291,0.204645054899,0.389135242689,-0.0328916865675,0.00646751158968,9.85216058291
255690000000,-0.0424115236104,0.19764315047,0.387280281698,-0.0314404851148,0.00650303851805,9.84979307462
255700000000,-0.0441609633642,0.190947151031,0.385414742508,-0.0300822857735,0.00655268571835,9.84789363684
255710000000,-0.0453950601811,0.18440659372,0.383501083524,-0.0287828598426,0.00670912733438,9.84894944225
255720000000,-0.0463890997219,0.1777793208,0.381547265583,-0.0274887236223,0.00683615985491,9.84753635019
255730000000,-0.0474000962281,0.170765999896,0.379570646413,-0.0261669577466,0.00690922198806,9.84504193932
255740000000,-0.0484153913114,0.163458275872,0.377587500894,-0.0248472696324,0.00695032316897,9.84270101456
255750000000,-0.0493169071456,0.156183402044,0.375601944223,-0.0235845536599,0.00698631837524,9.84082099213
255760000000,-0.0498681517475,0.149358248436,0.373578409275,-0.0224351667522,0.00708688933945,9.84084538198
255770000000,-0.0501950320586,0.142870220952,0.371537986668,-0.0213369882436,0.00716784825949,9.83911290504
255780000000,-0.0504706043856,0.136360537158,0.369486000154,-0.0202428670746,0.00721878737806,9.83717547527
255790000000,-0.0507782682735,0.129580772999,0.367428397037,-0.0191312441566,0.00723891472512,9.83555401461
255800000000,-0.0510911704677,0.122593986467,0.36537194584,-0.0180277370682,0.0072406452609,9.83433698279
255810000000,-0.05118832298,0.115992129425,0.363283029893,-0.0170334677879,0.00728946683492,9.83453831378
255820000000,-0.051089693057,0.109828667817,0.361175522874,-0.0161078880003,0.00732943554418,9.83320492202
255830000000,-0.0508584882129,0.103961190138,0.359065589619,-0.0152242924938,0.00735839506811,9.83164103058
255840000000,-0.0505908139179,0.0980733372747,0.356941045882,-0.0143417379597,0.00737013125146,9.83029970058
255850000000,-0.0503298441879,0.0919810039465,0.354822431472,-0.0134454714861,0.00736481005446,9.8292842492
255860000000,-0.0498721309717,0.0861792971797,0.352667954286,-0.0126394450897,0.00740482829719,9.82951861773
255870000000,-0.0492616506887,0.0807160472387,0.350500308197,-0.0118821841819,0.0074346606598,9.8281395903
255880000000,-0.0485192444838,0.0756118472148,0.348320584461,-0.0111796573298,0.00745994708652,9.82651268699
255890000000,-0.0477029654786,0.0707215538865,0.346139532257,-0.0105062432219,0.00747873468208,9.82510216127
255900000000,-0.0468404417987,0.0658063575703,0.343954841888,-0.00983017633855,0.0074883992638,9.82401810389
255910000000,-0.0457599645283,0.0612047382873,0.341750433075,-0.00922748934154,0.0075413870709,9.82376925812
255920000000,-0.0445424929381,0.0567692732391,0.339522755938,-0.0086427634289,0.00758640398308,9.82234130732
255930000000,-0.0432251353286,0.0525799819712,0.337292105329,-0.00809641587292,0.00762798757739,9.82081236523
255940000000,-0.0418391044926,0.0486438256292,0.335053526488,-0.0075884730843,0.00766657976655,9.81952488319
255950000000,-0.0402383541107,0.0452683268816,0.332794898794,-0.00717365625796,0.00774242555211,9.81881830614
255960000000,-0.0385004050913,0.0421723235576,0.330523321335,-0.00677849972818,0.00781878823918,9.81728512146
255970000000,-0.036677802279,0.0391409795145,0.328240789984,-0.00638443770391,0.00789266178993,9.81558222654
255980000000,-0.0347867087731,0.0361727020835,0.32595176561,-0.00600334422742,0.0079649214739,9.81413815262
255990000000,-0.0328648756625,0.033347843435,0.323667937386,-0.00564827642982,0.00803386366748,9.81303201808
256000000000,-0.0309029234113,0.0309171247336,0.321366627404,-0.00535869509593,0.00810734015091,9.81220716036
256010000000,-0.028919033607,0.0287043274792,0.319058308355,-0.00508332948933,0.0081745800742,9.81100572048
256020000000,-0.0269135634643,0.0265312338384,0.316744722746,-0.00480624587077,0.00823977063512,9.80991022572
256030000000,-0.024866272624,0.0243360444872,0.314432346569,-0.00452549801245,0.00830489898357,9.80904731636
256040000000,-0.0228816899965,0.0223013125073,0.312117872075,-0.00427888458573,0.00835692661646,9.80830915424
256050000000,-0.0209395238489,0.0204341293545,0.309792955382,-0.00405148219881,0.00839872659652,9.80730348007
256060000000,-0.0190372873869,0.0186989157396,0.3074690422,-0.00384017042011,0.00843143044209,9.80639837845
256070000000,-0.0171638239954,0.0170435548071,0.305149579275,-0.00363386669213,0.00845950262826,9.80568772124
256080000000,-0.0152608093555,0.0153741791873,0.302824152386,-0.00342419118125,0.00848795437176,9.80516543379
256090000000,-0.0135188275035,0.0137863522987,0.300494689801,-0.00323264628678,0.00848890276128,9.80453840064
256100000000,-0.0118658488971,0.0122681234316,0.298163026458,-0.00304898147896,0.00848062299725,9.80367441111
256110000000,-0.0102782042672,0.0108409307287,0.295831264542,-0.00287680985028,0.00846223496462,9.80289519453
256120000000,-0.00873932284775,0.00948195692486,0.293497081759,-0.00271303597107,0.00843618424971,9.80228254528
256130000000,-0.00722877793833,0.00814778553302,0.291161739195,-0.00255153739753,0.00840790589638,9.80183133147
256140000000,-0.00591044909449,0.00690182479676,0.288824798694,-0.00240507298047,0.00834845481819,9.80127649848
256150000000,-0.0047226658869,0.00571044808167,0.286494170991,-0.00226543017572,0.00827773600034,9.80049400165
256160000000,-0.00360895360013,0.0045780211869,0.284158988462,-0.00213257436209,0.00819967066228,9.79974515213
256170000000,-0.00255674678901,0.00349097087707,0.281822839222,-0.00200654633101,0.00811485421274,9.79914222159
256180000000,-0.00154666702968,0.00243642973172,0.279491653129,-0.00188483260719,0.0080266084065,9.79869264512
256190000000,-0.000669346736198,0.00146954791321,0.277165847906,-0.00177741272725,0.00791979719438,9.79817092769
256200000000,0.000160529749397,0.00054083530551,0.274843574114,-0.00167379376644,0.00781112831249,9.79760624994
256210000000,0.0009557317927,-0.000351848815053,0.272528699205,-0.0015741354259,0.00770100059038,9.79713110534
256220000000,0.00172188277848,-0.00122438924009,0.270208112432,-0.00147817771959,0.00758925212054,9.79676915904
256230000000,0.0024703067311,-0.00207116827485,0.267893007694,-0.00138463400242,0.0074774049519,9.79650700597
256240000000,0.00315453871749,-0.00282649182275,0.265586418186,-0.00130767811863,0.007358037881,9.79600951559
256250000000,0.00380522838947,-0.00352068541859,0.263275864495,-0.00123474314677,0.00723948353384,9.79552576736
256260000000,0.00444083933408,-0.00418172179389,0.260964114814,-0.00116540001931,0.00712131041752,9.79513396517
256270000000,0.00505527521697,-0.00482125218927,0.258662569841,-0.00109902092321,0.00700283861237,9.79484100044
256280000000,0.0056225078795,-0.00536275955489,0.2563630052,-0.00104811822574,0.00688123517508,9.79454179208
256290000000,0.00617539049978,-0.00583169147287,0.254079901562,-0.00100359629626,0.00676280361086,9.79419797404
256300000000,0.00674227888416,-0.00624344520397,0.251795021094,-0.000964942495114,0.00664909974559,9.79387231753
256310000000,0.00731513119184,-0.00662297327814,0.249514229084,-0.000928890443202,0.00653862248123,9.79353515113
256320000000,0.00787140218439,-0.00697404737874,0.247243881283,-0.000895041117796,0.00642842250128,9.79325577659
256330000000,0.0084026309273,-0.00730207651646,0.244970897973,-0.000862506735096,0.00631796499834,9.79304462049
256340000000,0.00891411165876,-0.00755209308359,0.242707032345,-0.000842112319224,0.00620945589272,9.79316434668
256350000000,0.00944683540132,-0.00776534379708,0.240451893788,-0.000822974964928,0.00610707974266,9.79294188467
256360000000,0.0100067553011,-0.00796027506741,0.238201413408,-0.000804420140359,0.00601137408468,9.79265659319
256370000000,0.0105684356087,-0.00813391046844,0.235954505623,-0.000786263662246,0.00591848131845,9.79240412143
256380000000,0.0110773069372,-0.00824859534468,0.233711625415,-0.000778424148012,0.00582045559759,9.79273108485
256390000000,0.0115436312448,-0.00831698709399,0.231480980475,-0.000771805824623,0.00572006827021,9.79253430812
256400000000,0.0119943075964,-0.00836720388318,0.229258218102,-0.00076546088619,0.00562278165769,9.79221551478
256410000000,0.0124802527875,-0.0084029354175,0.227037795381,-0.000758912189883,0.00553331371503,9.7919176381
256420000000,0.0129968335569,-0.00843012655525,0.224820736849,-0.000751992536553,0.00545104985588,9.79167991969
256430000000,0.0134485869329,-0.00839670922055,0.222623723399,-0.000754851720665,0.0053600968182,9.79243395638
256440000000,0.0138350146281,-0.00833639591196,0.220434808116,-0.000758054386775,0.00526353381073,9.79230385543
256450000000,0.0141522319018,-0.00824926076477,0.218247086995,-0.00076108853183,0.00516377515034,9.7919312453
256460000000,0.0144551620932,-0.00815750227405,0.216067908542,-0.000763919705843,0.005067618937,9.79155318923
256470000000,0.0147062671276,-0.00802154798488,0.21390004639,-0.000773908266622,0.0049679647559,9.79220367218
256480000000,0.0149394831251,-0.00785637044105,0.21175199072,-0.000785968660803,0.00486946696931,9.79227207067
256490000000,0.015119488348,-0.00767117439243,0.209615681906,-0.000799242776589,0.00476653514399,9.79215051179
256500000000,0.0152381255611,-0.00747666982859,0.207486156365,-0.000811524107473,0.00465772219852,9.79170770638
256510000000,0.0153051230428,-0.00727824563395,0.205356707568,-0.000822729347556,0.00454634720391,9.79124874164
256520000000,0.0153625010047,-0.00707456909376,0.203239532826,-0.000833786970466,0.00443963773097,9.79086815901
256530000000,0.0153874406415,-0.00685801706755,0.201129185139,-0.000849400153824,0.0043321708915,9.79173486726
256540000000,0.0154150247622,-0.00661432249189,0.199031988023,-0.000865332762111,0.00422866815946,9.79161059492
256550000000,0.0154094991972,-0.00637301040323,0.196942750415,-0.000880141248843,0.00412376134609,9.79121039937
256560000000,0.015354353467,-0.00613905158765,0.194856266442,-0.00089265946601,0.00401457367712,9.79079999071
256570000000,0.015256053255,-0.00591540875503,0.192781309882,-0.000903411130417,0.00390454043017,9.79046119687
256580000000,0.0151151051962,-0.00567588748351,0.190716182852,-0.000916810708406,0.00379330056994,9.79186710685
256590000000,0.0149845601107,-0.00543013399013,0.188665747296,-0.000931058104115,0.00368869788573,9.79184416705
256600000000,0.0148742942822,-0.00516902107827,0.186630003086,-0.000945646855578,0.00358854057776,9.79139467484
256610000000,0.0147443331309,-0.00491839432039,0.184597650803,-0.000958501098461,0.00348754841492,9.79089833712
256620000000,0.014579173379,-0.00467276912865,0.182563880013,-0.000968402136739,0.00338345253892,9.790478217
256630000000,0.014356526281,-0.00444921642968,0.180557059635,-0.000977710236115,0.00327631426005,9.79203014911
256640000000,0.0141217355353,-0.00422622644528,0.178566999411,-0.000986810731042,0.00317281066051,9.79239607538
256650000000,0.0139062124806,-0.00398654570093,0.176592337855,-0.000997203495543,0.00307597882131,9.79194521934
256660000000,0.0137025669865,-0.00373716265956,0.174616650792,-0.00100789258622,0.00298317212731,9.79132995791
256670000000,0.0134942093118,-0.00349288864516,0.172648673106,-0.00101644463645,0.0028898066,9.79077693055
256680000000,0.0132460392367,-0.00327938074069,0.170705119375,-0.00102207461106,0.00279432268163,9.79197014153
256690000000,0.0129785131493,-0.00308927226872,0.168773122343,-0.00102525472678,0.00269915256119,9.79184183038
256700000000,0.0127114479711,-0.00289091431591,0.166846673281,-0.00102911579253,0.00260897635479,9.79133851658
256710000000,0.0124791113848,-0.00267790130325,0.164927609058,-0.00103498476584,0.0025251067782,9.7908134104
256720000000,0.0122624742946,-0.00245159664762,0.163012379031,-0.00104131608976,0.00244479335324,9.79037699284
256730000000,0.0120359257819,-0.00224328534742,0.161124489357,-0.00104523029027,0.00236527581325,9.79217208405
256740000000,0.0117911044012,-0.0020562979157,0.159248287802,-0.00104495214341,0.00228403061108,9.79219276212
256750000000,0.011529397745,-0.00190280068158,0.157376582469,-0.00104283056766,0.00220394433361,9.79167496608
256760000000,0.0112834956663,-0.00174455447951,0.155517028699,-0.00104188252821,0.00212833931821,9.79108881902
256770000000,0.0110533718787,-0.00157006848984,0.153673200304,-0.00104262203123,0.00205857158124,9.79241840454
256780000000,0.0108381863376,-0.00138646449396,0.151851631531,-0.00104280858462,0.0019914747415,9.79272637184
256790000000,0.0106156077369,-0.00122451594729,0.150041178279,-0.00104017161253,0.00192453348286,9.79268572327
256800000000,0.0103715388652,-0.00108412900014,0.14823854327,-0.0010341090148,0.00185685308526,9.79208972237
256810000000,0.010127891186,-0.000961884834279,0.146441991706,-0.00102688831944,0.0017905966486,9.79143460072
256820000000,0.00988913651503,-0.000829859391942,0.144658413173,-0.00102126119179,0.00172806694584,9.79088052752
256830000000,0.00966365806162,-0.000693499431801,0.142886426962,-0.00101767111002,0.00166966112613,9.79230021106
256840000000,0.00944935963513,-0.000543265966388,0.141128703439,-0.00101359465244,0.00161293006057,9.79222770375
256850000000,0.0092263535402,-0.00040925970824,0.139391755426,-0.00100702471512,0.00155606284488,9.7917187272
256860000000,0.00899688934539,-0.000296058058838,0.137651730407,-0.000997795519229,0.00149893370918,9.79117067439
256870000000,0.00876072884323,-0.000194712012786,0.135923392831,-0.000988350014816,0.00144352523754,9.79264124473
256880000000,0.00853254762789,-9.08629572732e-05,0.134214074561,-0.000980065860836,0.00139079356516,9.79255707873
256890000000,0.00830940802322,2.25267337876e-05,0.132516182149,-0.00097361027923,0.00134085442685,9.79201959533
256900000000,0.0080971441879,0.000145765632548,0.130823663462,-0.000967229844302,0.00129236958294,9.79144306097
256910000000,0.00787606855164,0.000257904707814,0.129140373501,-0.000958900486502,0.00124403425365,9.79095944533
256920000000,0.007646216025,0.000349104249317,0.127478628134,-0.000948614320225,0.00119574790524,9.79256289837
256930000000,0.00741469250145,0.000425478068307,0.125831022498,-0.00093758557683,0.00114850570406,9.79257077286
256940000000,0.00718584944937,0.000510910099279,0.12418835166,-0.000928147221386,0.00110343170374,9.79209634071
256950000000,0.00696254138653,0.000609035924129,0.122546202718,-0.000920519271522,0.00106043701165,9.79156265655
256960000000,0.00674869529731,0.000703151641554,0.120939640253,-0.000912737457398,0.00101851432194,9.7936533086
256970000000,0.00652745132896,0.000781697330971,0.119347367594,-0.000902411674718,0.000976629087747,9.79367119547
256980000000,0.00630769890484,0.000839363237783,0.117762349264,-0.000890047104352,0.000934987512997,9.79306105451
256990000000,0.00607789126241,0.000891187208127,0.116193631045,-0.000877655703566,0.000894435154493,9.79237239171
257000000000,0.00585148489405,0.000949132457237,0.11463702288,-0.000866736677929,0.000856066032671,9.7938432383
257010000000,0.00563511843428,0.00101010167336,0.11310747293,-0.000856705647616,0.000819382522729,9.7941806982
257020000000,0.00543585075944,0.00106573639532,0.111593313216,-0.000846190059324,0.000783894070742,9.79413325207
257030000000,0.00522985397444,0.00111354109887,0.110092308785,-0.000833865384977,0.000748832171323,9.79348188966
257040000000,0.00501849721727,0.00115251741007,0.108591171889,-0.000820170696941,0.000714268680527,9.79276679654
257050000000,0.00480704748894,0.00118749624262,0.107103090167,-0.000806775257588,0.000680684670447,9.79216230142
257060000000,0.00459924488265,0.00121585785321,0.105626762471,-0.00079483608618,0.000649613706674,9.79368959984
257070000000,0.00441289680373,0.00125693283801,0.104166577119,-0.000783722283965,0.000619842661146,9.79362530778
257080000000,0.00421794620717,0.00130512261643,0.102714152152,-0.000772293049727,0.000590916109819,9.79309301774
257090000000,0.00402579260643,0.00134049401528,0.101267159655,-0.000759630510684,0.000562459286597,9.79251633293
257100000000,0.00383702939035,0.0013647032704,0.0998244963861,-0.000746135209268,0.000534474448659,9.79203096403
257110000000,0.00365645335124,0.00137258623876,0.0984080155561,-0.000733069064481,0.000509203106217,9.79420214982
257120000000,0.00348622936227,0.00139453845697,0.0970104148849,-0.000720872755105,0.000485200946253,9.7943028473
257130000000,0.00332427384519,0.00141913707646,0.0956265210784,-0.000709476715679,0.000462282791182,9.7937611459
257140000000,0.00316873478655,0.00144054304609,0.0942469146177,-0.000697878084928,0.000440072360204,9.79312417335
257150000000,0.00301756179883,0.0014597324682,0.0928858309535,-0.000685215066412,0.000420009556183,9.79465884708
257160000000,0.00286782913939,0.00146404913987,0.0915414181245,-0.000671632261769,0.000400638389949,9.79454865456
257170000000,0.00272601378565,0.00146958563982,0.0902073965303,-0.00065822966938,0.000382807837952,9.79496989662
257180000000,0.00259626068718,0.0014745364892,0.088889718121,-0.000645704142999,0.000365979519167,9.79449050905
257190000000,0.00246927984253,0.0014819127695,0.0875769277298,-0.000633872683143,0.000349965969564,9.79382673272
257200000000,0.00234020681101,0.00149176952342,0.0862650911175,-0.000621903687733,0.000334444097655,9.79322788397
257210000000,0.00222270576563,0.00148788281288,0.0849852142381,-0.000609102163953,0.00032036746721,9.79474995047
257220000000,0.00210493308346,0.00148192983442,0.0837133386284,-0.000595686328982,0.000306755865835,9.79468643954
257230000000,0.00199539597637,0.00147833515364,0.0824514956477,-0.000582648365064,0.000293701949351,9.79415659068
257240000000,0.00188047815545,0.00147469736078,0.0811870777308,-0.000570550146539,0.000281260774277,9.79358238603
257250000000,0.00177873063961,0.00148160241828,0.0799281341744,-0.000559122417785,0.00026931251181,9.79309904209
257260000000,0.00168006824891,0.0014767415221,0.0786946491083,-0.000547370447429,0.000258405699716,9.79473462379
257270000000,0.00157885919956,0.00147017702772,0.0774745016045,-0.000534901020097,0.000247736709022,9.79476422485
257280000000,0.00147674095496,0.00145606411027,0.076265699134,-0.000522159446136,0.000237262383043,9.7943044531
257290000000,0.00138419873768,0.00144120086703,0.0750563129643,-0.000509892885806,0.00022711545591,9.79378067382
257300000000,0.00130212949996,0.00143101740704,0.0738775592946,-0.00049825371882,0.000218233655943,9.79585665351
257310000000,0.00122452719825,0.00141944987864,0.0727097302364,-0.000486902966239,0.000209918758531,9.79589558391
257320000000,0.00115433539906,0.00139670739649,0.0715535503641,-0.000475383226863,0.000201864424066,9.79531339671
257330000000,0.00107362504413,0.0013772000564,0.0704013600073,-0.000463474184841,0.000193846208613,9.79464970421
257340000000,0.000993079435042,0.00135107041457,0.0692548069714,-0.000451506910728,0.000185871262523,9.79408192902
257350000000,0.000916603108304,0.00133738429964,0.0681318037537,-0.000439921863564,0.000178927677313,9.79610674934
257360000000,0.000854440325537,0.00131639238274,0.0670301327441,-0.000428845385694,0.000172678386245,9.79663090825
257370000000,0.000799497676234,0.0012984387265,0.0659403512364,-0.000418101375576,0.000166860945989,9.79613953961
257380000000,0.000743835480419,0.0012772538791,0.0648463468316,-0.000407275544609,0.000161176924685,9.79543128761
257390000000,0.000680510738349,0.00125218644459,0.0637644383326,-0.000396197650227,0.00015543052432,9.79478624487
257400000000,0.000623899272514,0.00122056614131,0.0627071102435,-0.000385172675316,0.000150317994416,9.79619425487
257410000000,0.000565530381796,0.00119665497013,0.0616642097432,-0.000374519252377,0.000145564284658,9.79609896292
257420000000,0.000511787293015,0.00117276168167,0.0606235004929,-0.000364461317233,0.000141208010445,9.79556789757
257430000000,0.000465218162929,0.00115112546654,0.059594617477,-0.000354775308698,0.000137091962734,9.79500191622
257440000000,0.000413287464683,0.00112902595046,0.0585640572971,-0.000345079364912,0.000132953442549,9.79452815431
257450000000,0.000365528951197,0.00110229555219,0.057549787638,-0.000335250428189,0.000129171172687,9.79603115187
257460000000,0.000320047925836,0.0010736137697,0.0565509566627,-0.000325434278986,0.000125465429806,9.79604325217
257470000000,0.000280395203695,0.00104991528242,0.055553517969,-0.000316027425256,0.000121988511271,9.7956038457
257480000000,0.000240300118668,0.00102021668941,0.054561971933,-0.000307154213399,0.000118799782291,9.79510815007
257490000000,0.000209295175846,0.000992717883664,0.0535964671462,-0.000298647260756,0.000116417472612,9.79701547483
257500000000,0.00018114336525,0.000971432357347,0.0526418236922,-0.000290065341065,0.000114125933832,9.79704478784
257510000000,0.000153039546975,0.000950172938026,0.051700566365,-0.000281350815948,0.000111742470427,9.79650269928
257520000000,0.000118282058874,0.000920410919778,0.050768766265,-0.000272732498232,0.000109337000394,9.79588681585
257530000000,8.66358783333e-05,0.000886061423665,0.0498356529077,-0.000264503175943,0.000107089556656,9.79536049327
257540000000,6.15343847262e-05,0.000859781944538,0.048923951402,-0.000256831118604,0.000105724661615,9.79720981814
257550000000,3.99206541103e-05,0.00083082165282,0.0480357423477,-0.00024940582909,0.000104732039193,9.79768493394
257560000000,2.48388705289e-05,0.000813168867943,0.0471459285369,-0.000241954279858,0.000103732866396,9.79723390603
257570000000,8.60386955111e-06,0.000785024619355,0.0462620511231,-0.00023442388608,0.000102590233034,9.79658562922
257580000000,-4.94993257063e-06,0.000763952408874,0.0453884495462,-0.000227007406606,0.000101403504744,9.79599559322
257590000000,-2.00221345048e-05,0.000741696474125,0.0445278793357,-0.000220046530632,0.000100779041512,9.79726832876
257600000000,-2.81460820786e-05,0.000717977361316,0.043688528299,-0.000213462508308,0.00010045933275,9.79718012883
257610000000,-3.81878467749e-05,0.000699498350055,0.0428524067902,-0.000207080868499,0.000100235699843,9.7966977977
257620000000,-4.25372581117e-05,0.000672214199077,0.0420206363394,-0.000200682834002,9.98694432699e-05,9.79618426151
257630000000,-4.9774513834e-05,0.000642003695391,0.0411901770498,-0.000194227941839,9.92901119899e-05,9.79575454414
257640000000,-5.99268635296e-05,0.000619765151216,0.0403769719066,-0.000188006043572,9.8901377379e-05,9.79710497199
257650000000,-6.59342749836e-05,0.000598024430906,0.0395719965272,-0.000182094724217,9.86987139858e-05,9.79711491894
257660000000,-6.428841082e-05,0.000576736072272,0.0387793318828,-0.000176514224229,9.86765947389e-05,9.79671910114
257670000000,-6.54360086015e-05,0.000560018602296,0.037988583111,-0.000171094938675,9.86604003096e-05,9.79627287357
257680000000,-6.61203088185e-05,0.000537143310434,0.0372234075493,-0.000165768094641,9.86424556458e-05,9.7979740755
257690000000,-5.84832710894e-05,0.000517633609029,0.036470049688,-0.00016040546228,9.84925718768e-05,9.79799879859
257700000000,-6.0808981068e-05,0.000491089358858,0.0357206818193,-0.000155164081472,9.83198339955e-05,9.7975137374
257710000000,-6.35656268301e-05,0.000467247905682,0.0349798532131,-0.000150200123855,9.82577113157e-05,9.79696310851
257720000000,-6.02632588582e-05,0.000447718867957,0.0342561774816,-0.00014558718264,9.83842895618e-05,9.79811010527
257730000000,-5.38674041796e-05,0.000438522490831,0.0335427144222,-0.000141128503302,9.85372422046e-05,9.79837001834
257740000000,-4.74513900402e-05,0.000423994359898,0.0328406540995,-0.000136681879073,9.85741322989e-05,9.79832903809
257750000000,-4.51812845929e-05,0.00040525177877,0.0321515590819,-0.000132213147959,9.84635179517e-05,9.797829117
257760000000,-4.07556397048e-05,0.000386918197742,0.0314623087464,-0.000127858091767,9.83199491176e-05,9.79728166013
257770000000,-4.06996903899e-05,0.000369034876768,0.0307851729459,-0.000123741870001,9.82575543883e-05,9.79681925819
257780000000,-3.40786000588e-05,0.000347586470495,0.0301150052562,-0.000119910547772,9.82860157998e-05,9.79794784867
257790000000,-3.00213553706e-05,0.000330198851607,0.0294546565153,-0.000116173152409,9.82867329773e-05,9.79790114858
257800000000,-2.85034058377e-05,0.000309768030286,0.0287996111866,-0.000112403991065,9.81409054038e-05,9.79750876255
257810000000,-1.86615919893e-05,0.00029826129129,0.0281396992698,-0.00010861052257,9.78551319133e-05,9.79708345036
257820000000,-6.88866839438e-06,0.00028500546455,0.0274915614809,-0.000104915124892,9.75366052685e-05,9.79672542509
257830000000,-3.86851566411e-06,0.000268724255972,0.0268517869802,-0.000101506238918,9.73214546646e-05,9.79792493081
257840000000,-1.69180903824e-06,0.000250027723761,0.0262259600538,-9.82883383478e-05,9.71766488666e-05,9.79794836998
257850000000,7.85611659193e-06,0.000229190619404,0.025605369529,-9.51371942314e-05,9.69899024312e-05,9.79761316509
257860000000,1.02424873649e-05,0.000207604822805,0.024992294156,-9.1951947063e-05,9.6676713795e-05,9.79723075261
257870000000,8.17839553957e-06,0.000190897210829,0.0243914090774,-8.88727846796e-05,9.6320655688e-05,9.79871754232
257880000000,1.88900310464e-05,0.000177071509665,0.0238063368551,-8.59068405864e-05,9.59777671204e-05,9.79874459804
257890000000,2.54903301235e-05,0.000171683821874,0.0232264039537,-8.3124751425e-05,9.57062294189e-05,9.79832681172
257900000000,3.71888932348e-05,0.000154825523276,0.0226489479997,-8.04908898793e-05,9.54769379431e-05,9.79785082577
257910000000,4.18078448876e-05,0.000137738241492,0.0220726270024,-7.78977122303e-05,9.52020169649e-05,9.79744371028
257920000000,5.23696628328e-05,0.000124632072123,0.0215148174291,-7.53917857417e-05,9.48810418624e-05,9.79885487026
257930000000,6.48979665684e-05,0.000111429587509,0.0209684117313,-7.28989026225e-05,9.45055075248e-05,9.79888197428
257940000000,8.01096441172e-05,9.47214871737e-05,0.020422583409,-7.05007059889e-05,9.41402114877e-05,9.79848704909
257950000000,8.97391871703e-05,8.23050527809e-05,0.0198798267833,-6.82471558366e-05,9.38247362279e-05,9.79803665157
257960000000,9.44567986238e-05,7.06734051405e-05,0.0193523054057,-6.61925359089e-05,9.3545793165e-05,9.79898400076
257970000000,0.00010319393544,5.74725371747e-05,0.018843724175,-6.42048228263e-05,9.32345209136e-05,9.79919932296
257980000000,0.000111744664024,4.30132206857e-05,0.0183427256351,-6.22293514751e-05,9.28608768011e-05,9.79916521079
257990000000,0.000113413666686,3.55691751914e-05,0.0178529122039,-6.02654728567e-05,9.24456483298e-05,9.79875348832
258000000000,0.000117284708431,2.47039312417e-05,0.0173612210173,-5.83784121502e-05,9.20374729573e-05,9.79830273453
258010000000,0.000129320919195,1.61931713935e-05,0.0168693110851,-5.6602072e-05,9.16584539077e-05,9.79792204651
258020000000,0.000138925612556,3.92346642273e-06,0.0163808507438,-5.49013581745e-05,9.12841235285e-05,9.79763157157
258030000000,0.000153243136749,-4.08025190295e-06,0.015905869704,-5.32848182318e-05,9.0834155104e-05,9.79863302772
258040000000,0.000160647943933,-1.10323330794e-05,0.0154399599985,-5.16539506617e-05,9.03335429777e-05,9.79865540539
258050000000,0.0001701039871,-2.02957804367e-05,0.0149765156122,-5.00309908538e-05,8.98063107261e-05,9.79837871325
258060000000,0.000180590187387,-3.26808098921e-05,0.0145229831436,-4.85469525726e-05,8.92190172842e-05,9.79928361367
258070000000,0.000188577346882,-3.64332349062e-05,0.0140782595524,-4.71593472472e-05,8.86341699429e-05,9.79920113671
258080000000,0.000193685000344,-4.34393774065e-05,0.0136419288426,-4.58340691161e-05,8.80387374673e-05,9.79883610717
258090000000,0.000197693435517,-4.17963177346e-05,0.0132044548342,-4.45167456981e-05,8.74183454982e-05,9.79845221222
258100000000,0.000210994539799,-4.74357725331e-05,0.0127714569702,-4.31822256934e-05,8.67772636428e-05,9.7981323228
258110000000,0.000210434409765,-3.83606546176e-05,0.0123550778189,-4.19519884129e-05,8.60280216808e-05,9.79932233841
258120000000,0.000221091489698,-3.81838548616e-05,0.0119456202009,-4.07828791957e-05,8.52670330953e-05,9.7993553593
258130000000,0.000232906899406,-3.77093364638e-05,0.0115413326413,-3.9682583318e-05,8.44967326112e-05,9.79903373883
258140000000,0.000239271714717,-4.61057853991e-05,0.0111346280189,-3.86226828295e-05,8.37134218236e-05,9.79866365234
258150000000,0.000245548524172,-5.65039040323e-05,0.0107387636282,-3.75651826277e-05,8.29219427756e-05,9.79834614757
258160000000,0.000250587217379,-6.5846941414e-05,0.0103553885479,-3.65838806581e-05,8.20278504676e-05,9.79948031139
258170000000,0.00025576912128,-6.83323059514e-05,0.00997377414105,-3.56241078866e-05,8.11260367092e-05,9.79950685503
258180000000,0.000267968022201,-7.10984357126e-05,0.00959584567661,-3.4707187917e-05,8.02172179959e-05,9.79919481716
258190000000,0.000276927828436,-7.46409813832e-05,0.00922532009429,-3.383454336e-05,7.92956209721e-05,9.79883741388
258200000000,0.000281302304533,-8.22292873671e-05,0.00885306293,-3.29849003742e-05,7.83656348997e-05,9.79853122428
258210000000,0.000283168116521,-7.97062248766e-05,0.00849641064382,-3.2206166949e-05,7.7352687972e-05,9.79960410062
258220000000,0.000284869063049,-8.22136156581e-05,0.0081537565193,-3.14443130258e-05,7.50249519368e-05,9.7999083072
258230000000,0.000289882626275,-9.25550790649e-05,0.0078140001755,-3.07016183324e-05,7.42763820132e-05,9.79967826273
258240000000,0.000297162661297,-9.44463594508e-05,0.0074798517951,-2.99896679665e-05,7.34744516743e-05,9.79929987392
258250000000,0.000299847282083,-0.000100953488295,0.00714805636561,-2.93047498665e-05,7.26182066089e-05,9.79894548391
258260000000,0.000305633397485,-0.000105269382553,0.00682541847602,-2.86790349986e-05,7.17574433548e-05,9.79964680209
258270000000,0.000314879266337,-0.000111444279755,0.00650938880952,-2.80581145655e-05,7.08931368923e-05,9.79958008276
258280000000,0.00031674711155,-0.000113124967368,0.0061985186085,-2.7440186655e-05,7.0047830156e-05,9.79929406689
258290000000,0.000318517416588,-0.000117114350967,0.00588635585407,-2.68327615912e-05,6.92164123038e-05,9.79899390594
258300000000,0.000322198750272,-0.000121785561122,0.00557692495156,-2.62775440359e-05,6.83121722471e-05,9.79967169611
258310000000,0.000322818597861,-0.000118584866928,0.00528785908854,-2.57387581436e-05,6.73711308479e-05,9.79961535592
258320000000,0.000327418268781,-0.000117916150251,0.00499731180794,-2.52081946845e-05,6.64162961958e-05,9.79934805507
258330000000,0.000336503871761,-0.000122712919168,0.00470752108792,-2.46812823629e-05,6.54857748495e-05,9.79906572406
258340000000,0.000338024677145,-0.000121632184299,0.00441676191638,-2.41597304817e-05,6.45990809746e-05,9.79883011831
258350000000,0.000342526638663,-0.000120289745014,0.0041373164442,-2.36783782474e-05,6.36313466658e-05,9.79954353218
258360000000,0.000350730748999,-0.000126677711471,0.00385328803178,-2.32070035694e-05,6.26352277522e-05,9.79954422425
258370000000,0.000355303433462,-0.000129317300101,0.00358317949067,-2.27410563505e-05,6.1604845837e-05,9.79933005933
258380000000,0.000360134532668,-0.000123850115231,0.00331158184628,-2.22783399398e-05,6.05707930653e-05,9.79909004632
258390000000,0.000356759731127,-0.000122342516537,0.00305524567266,-2.18536258523e-05,5.9451919951e-05,9.7999672602
258400000000,0.000359523023117,-0.00011619071734,0.00280537032532,-2.14398400086e-05,5.83628757245e-05,9.79997295673
258410000000,0.000358331092613,-0.000114114233483,0.00256550593353,-2.10354141688e-05,5.72864058171e-05,9.7997150248
258420000000,0.000355016474257,-0.000109119058064,0.00231988670209,-2.06340225043e-05,5.61902826387e-05,9.79942449355
258430000000,0.000356008923226,-0.000107808897027,0.00207642209696,-2.02554550669e-05,5.5000265131e-05,9.79999893887
258440000000,0.000350850393706,-0.000105225354616,0.00184589654029,-1.98854767373e-05,5.37953957912e-05,9.80012053804
258450000000,0.000348918818385,-0.00010748171646,0.00162240497156,-1.95303567401e-05,5.26146511466e-05,9.80008877917
258460000000,0.000345171958159,-0.000104767326684,0.00139709012221,-1.91876466106e-05,5.14832311353e-05,9.79982844043
258470000000,0.000339147011848,-0.000102942781426,0.00118227159584,-1.88517272408e-05,5.03739432878e-05,9.79954650124
258480000000,0.000338209807191,-0.0001044119323,0.000965612964055,-1.85140882997e-05,4.9251625952e-05,9.79930923702
258490000000,0.000336108766656,-0.000109754601859,0.000752390641372,-1.81870116156e-05,4.81069193901e-05,9.79985965505
258500000000,0.000336260083063,-0.000108718193313,0.000540664016416,-1.78611223998e-05,4.69785074338e-05,9.79982982912
258510000000,0.000337104681673,-0.00011239114338,0.00033693738603,-1.75452574094e-05,4.59057041885e-05,9.79963060694
258520000000,0.000339002380627,-0.000109535876607,0.000139160567883,-1.7240853205e-05,4.4892070103e-05,9.79941652096
258530000000,0.000333206993458,-0.000106712676468,-5.40187588452e-05,-1.69405090923e-05,4.39045016804e-05,9.79923682221
258540000000,0.000328566253111,-0.000105140842539,-0.000241628060426,-1.66510992524e-05,4.29132735939e-05,9.79998371916
258550000000,0.000328920282694,-0.000108961789481,-0.000432650173832,-1.63546367384e-05,4.19103970496e-05,9.80001421959
258560000000,0.000333004461617,-0.000113294219719,-0.000621106406477,-1.60601276834e-05,4.09310920816e-05,9.79982334411
258570000000,0.000332333159675,-0.000117326944266,-0.00080780464958,-1.57767305601e-05,4.00092616624e-05,9.79960042955
258580000000,0.000338803999834,-0.000124328118998,-0.000981696780298,-1.55159995446e-05,3.91427543942e-05,9.80009627961
258590000000,0.000344112893745,-0.000126013175029,-0.00114564799892,-1.52615855782e-05,3.82988887131e-05,9.80021139747
258600000000,0.000345167271458,-0.00013067264003,-0.00130691416753,-1.50038465429e-05,3.744118037e-05,9.8001955531
258610000000,0.000346144484477,-0.000124005766608,-0.00146618171241,-1.47396916181e-05,3.65724230032e-05,9.79998655805
258620000000,0.000346890034211,-0.000124223574931,-0.00162485024993,-1.44787343501e-05,3.57276032293e-05,9.79975731757
258630000000,0.000344140628041,-0.000129720827058,-0.00178498859136,-1.42299787041e-05,3.49378391448e-05,9.79956359417
258640000000,0.000346360869047,-0.000132701690313,-0.00194240459729,-1.39968963761e-05,3.41865680879e-05,9.79987848007
258650000000,0.000347330353883,-0.000134048329021,-0.00209393903195,-1.37644614419e-05,3.34478651556e-05,9.79983659068
258660000000,0.000349205000385,-0.000131503337453,-0.00225014777225,-1.35241852239e-05,3.26921680195e-05,9.79969482988
258670000000,0.000344933473422,-0.000128262204368,-0.00239118572934,-1.32774558859e-05,3.19250046879e-05,9.79954872018
258680000000,0.000341071010126,-0.000128800421997,-0.00253104705353,-1.30426478279e-05,3.11466202866e-05,9.80016414658
258690000000,0.000337468751394,-0.000129908729168,-0.00266741372835,-1.28192798873e-05,3.04138396412e-05,9.80017999421
258700000000,0.000341981724723,-0.000132619640042,-0.00279693393356,-1.26063585791e-05,2.97221575376e-05,9.80001232891
258710000000,0.000340990851372,-0.000128681904325,-0.00293085458166,-1.23937115943e-05,2.90384454971e-05,9.79981981915
258720000000,0.00034199340084,-0.000125014317969,-0.00306247492056,-1.21730420775e-05,2.83363768296e-05,9.79965477351
258730000000,0.000341016029945,-0.000131856820502,-0.00318678048585,-1.19543670942e-05,2.75821686747e-05,9.8002307806
258740000000,0.000334790560571,-0.000129536495351,-0.00330961531166,-1.17385482651e-05,2.68338434325e-05,9.80037465366
258750000000,0.00033074840898,-0.000136381551267,-0.00342337440342,-1.15349785577e-05,2.61288835501e-05,9.80023259555
258760000000,0.000326272472632,-0.000136608742692,-0.00353249197456,-1.13410399595e-05,2.54597494638e-05,9.80003018895
258770000000,0.00032445454253,-0.000138307302118,-0.00364330391677,-1.11463757217e-05,2.47943451119e-05,9.79984634796
258780000000,0.00032642048891,-0.000133127326595,-0.00375412291436,-1.0946876024e-05,2.40854574203e-05,9.80021810757
258790000000,0.000324651290517,-0.000134214494462,-0.00385445635689,-1.07419915814e-05,2.33651641072e-05,9.80018550244
258800000000,0.00031751072878,-0.000127084383395,-0.00395462133595,-1.05429321253e-05,2.26692181055e-05,9.80003700121
258810000000,0.000312752765573,-0.000132576665374,-0.00406262266614,-1.03562206436e-05,2.20192203511e-05,9.79988054725
258820000000,0.000306962811592,-0.000132535008007,-0.00415816583509,-1.01793010885e-05,2.13843690177e-05,9.80023104637
258830000000,0.000310154303406,-0.000129577011555,-0.0042501772437,-9.99948594123e-06,2.07487550921e-05,9.80020062264
258840000000,0.000308822691027,-0.00013087748967,-0.00434827991351,-9.81217031345e-06,2.00954135271e-05,9.80006096989
258850000000,0.000306976921996,-0.000134345205767,-0.00443523684575,-9.6221179177e-06,1.94385843391e-05,9.7999137667
258860000000,0.000305682006593,-0.000136049662011,-0.0045186352039,-9.43872912242e-06,1.88090082061e-05,9.79979101246
258870000000,0.000300735034837,-0.000134582041166,-0.00460495236892,-9.26663464232e-06,1.82272750754e-05,9.80015288277
258880000000,0.000299171123609,-0.000133987230587,-0.00468479447193,-9.1000979994e-06,1.76748553197e-05,9.80015077033
258890000000,0.00029631603942,-0.000134912516155,-0.00476528555492,-8.93156937471e-06,1.71238410088e-05,9.80003939443
258900000000,0.000297718138873,-0.000135446964197,-0.0048463067836,-8.7576879521e-06,1.65600789006e-05,9.79991532487
258910000000,0.000302057332391,-0.000135100015567,-0.00492658888136,-8.58417214618e-06,1.60167854584e-05,9.80035249831
258920000000,0.000302401209025,-0.000126726471125,-0.00500210127991,-8.41578161159e-06,1.55031758081e-05,9.80035181603
258930000000,0.00029420484788,-0.000131060097745,-0.00507123939427,-8.25617045839e-06,1.50295207867e-05,9.80021935217
258940000000,0.000297560381363,-0.000131368883758,-0.00513630154791,-8.10162728197e-06,1.45810799842e-05,9.80007123904
258950000000,0.000296996857686,-0.000130774559357,-0.00520094316881,-7.94579062553e-06,1.41328092627e-05,9.79994530053
258960000000,0.00030476819688,-0.000136402125799,-0.00526600771719,-7.78501687804e-06,1.36884469717e-05,9.80034704141
258970000000,0.00030364141063,-0.000144088648135,-0.00533159255731,-7.62309541113e-06,1.32488872565e-05,9.8003477213
258980000000,0.000292228766977,-0.000136588729284,-0.00539090191845,-7.46661403023e-06,1.28354185821e-05,9.80022745886
258990000000,0.000286813522613,-0.000136950216844,-0.00544706764492,-7.31776260581e-06,1.24551266198e-05,9.80009259767
259000000000,0.000284171949857,-0.00012770498484,-0.00550673823593,-7.17311284031e-06,1.20938414228e-05,9.79997782187
259010000000,0.000284810636844,-0.000122930978632,-0.00555890768538,-7.02589413672e-06,1.1742925598e-05,9.80034889446
259020000000,0.000284025798364,-0.000125512877877,-0.00560936060499,-6.87534522628e-06,1.13839010753e-05,9.80043685073
259030000000,0.000281960727344,-0.000118305914602,-0.0056545136536,-6.72509128307e-06,1.10288708718e-05,9.80033870415
259040000000,0.00028131929471,-0.000123464685485,-0.00570421617094,-6.58013382959e-06,1.06962153885e-05,9.8002023148
259050000000,0.000289406402721,-0.000118798629063,-0.00574451574716,-6.44176202698e-06,1.0390829267e-05,9.80007916618
259060000000,0.000286802184,-0.000114410496157,-0.00578993388848,-6.30670568536e-06,1.0098478788e-05,9.80031685286
259070000000,0.00028349078231,-0.000117863438896,-0.00582257515184,-6.17036372115e-06,9.80157552648e-06,9.80029261579
259080000000,0.000281677057333,-0.000122118321289,-0.00585888579021,-6.03229898631e-06,9.49503258887e-06,9.80019387884
259090000000,0.000279990083446,-0.000127283207955,-0.00589444546437,-5.89575022091e-06,9.19118726469e-06,9.80009062599
259100000000,0.000277325420075,-0.000123403737828,-0.00592826391933,-5.76435332442e-06,8.90611591161e-06,9.80000475759
259110000000,0.000281825018354,-0.0001218717604,-0.00596484773864,-5.63860463303e-06,8.64553079299e-06,9.80024873654
259120000000,0.00027716160048,-0.00012489259618,-0.00599669184652,-5.51562158276e-06,8.39520911754e-06,9.80024515557
259130000000,0.000277505246604,-0.000128120831349,-0.00602845344407,-5.3926046966e-06,8.14008837465e-06,9.80016765271
259140000000,0.000276503676627,-0.000133480857994,-0.00605432153903,-5.26930913467e-06,7.87714513859e-06,9.80008195346
259150000000,0.000280373867781,-0.000134648520927,-0.00608218792248,-5.15108668156e-06,7.61619016146e-06,9.80030569921
259160000000,0.000280574367657,-0.00013833391761,-0.0061062393398,-5.03750213633e-06,7.37190777221e-06,9.80029382754
259170000000,0.000278684212326,-0.00013956223613,-0.0061350886522,-4.92861687215e-06,7.14581966532e-06,9.80021313656
259180000000,0.000282435580344,-0.000139218863337,-0.0061570568713,-4.82222455358e-06,6.92683153245e-06,9.80012636498
259190000000,0.000280752942855,-0.000134665030229,-0.00618472628443,-4.71626434838e-06,6.70267805456e-06,9.80005351457
259200000000,0.000274054064632,-0.000134090104148,-0.00620688682499,-4.60816243868e-06,6.46946316858e-06,9.80034034045
259210000000,0.000269717729205,-0.000137327214478,-0.00622487651031,-4.50153194686e-06,6.23977048424e-06,9.80034928192
259220000000,0.000268167340457,-0.000140720683831,-0.00624916958393,-4.39821496404e-06,6.0243495185e-06,9.80027289259
259230000000,0.000264901017074,-0.000145439204775,-0.00626679760391,-4.29801858294e-06,5.82327957196e-06,9.80018466806
259240000000,0.000267559163832,-0.000138333606542,-0.00628474142033,-4.19949085829e-06,5.62672769608e-06,9.80010889514
259250000000,0.000264154373049,-0.00013862552161,-0.00629380950965,-4.09881153798e-06,5.43273643063e-06,9.80036786118
259260000000,0.000257299960896,-0.000136922666897,-0.00630103991757,-3.99832464136e-06,5.23528318198e-06,9.80037140614
259270000000,0.000255553602525,-0.000135764367207,-0.00630881450339,-3.89960232297e-06,5.0430093882e-06,9.80029736724
259280000000,0.000255415757543,-0.00013454064176,-0.00632030342087,-3.8034797042e-06,4.86354002791e-06,9.80021340007
259290000000,0.000252804648461,-0.000132825895671,-0.00633082053429,-3.70874158607e-06,4.70984273607e-06,9.80042811121
259300000000,0.000256436322142,-0.000138432953171,-0.00633448419587,-3.61488536491e-06,4.56172335196e-06,9.80041339134
259310000000,0.000261705616151,-0.000135446138557,-0.00634015504651,-3.52186266365e-06,4.41126571301e-06,9.80033223265
259320000000,0.000265681204697,-0.000139893540648,-0.00634424712279,-3.43019109361e-06,4.25871539584e-06,9.80024579532
259330000000,0.000272693808616,-0.000139321726657,-0.00634509343787,-3.33865922458e-06,4.12457523609e-06,9.80037795499
259340000000,0.00026860988476,-0.000136662408576,-0.00634539848073,-3.25093873584e-06,4.00438800357e-06,9.80039659549
259350000000,-0.0629937567302,0.0215055098663,-0.0115279058893,-0.00374037000047,-0.0109478551037,10.1222393018
259360000000,-0.159710480462,0.0545189016121,-0.019472216428,-0.00896383299095,-0.0239042919883,10.1905469071
259370000000,-0.273392647017,0.0935583246048,-0.0288887882758,-0.0160614558638,-0.0376010049825,10.1463446549
259380000000,-0.395742725222,0.13643389606,-0.0391018295433,-0.0251116965638,-0.0514604991038,10.0714338561
259390000000,-0.518690148681,0.1807390587,-0.0497008930331,-0.0356469045559,-0.064521440183,9.9930679539
259400000000,-0.642114624123,0.225349497314,-0.0604988294575,-0.0474044233381,-0.0773149896737,9.93261740236
259410000000,-0.765048556351,0.269612845049,-0.0713962761272,-0.060109243496,-0.0897062462624,9.88857836221
259420000000,-0.887170751036,0.31407001701,-0.082330656468,-0.0736884348808,-0.101737578475,9.85776575681
259430000000,-1.00947961842,0.35943361327,-0.0932620677316,-0.088048140547,-0.113621037364,9.8363211195
259440000000,-1.09046550817,0.396005923298,-0.103761033913,-0.101104279249,-0.11973523078,9.93418209765
259450000000,-1.14804111982,0.42716890591,-0.113966600928,-0.112895378319,-0.123276539876,9.94253812701
259460000000,-1.191161734,0.455246464716,-0.123970177754,-0.123616046127,-0.125125566799,9.9168520746
259470000000,-1.22523818513,0.482347885552,-0.133830658528,-0.13355700168,-0.126036581974,9.88518324497
259480000000,-1.21173290137,0.50239370392,-0.143208096242,-0.141190911216,-0.121704495285,9.99483551942
259490000000,-1.1647753888,0.516943854604,-0.152216476013,-0.14617208517,-0.113600615302,10.0258165213
259500000000,-1.09141167529,0.526205537363,-0.160920549995,-0.148618483816,-0.102596105303,10.0236149845
259510000000,-1.00202145593,0.532293043905,-0.169461286254,-0.149353488336,-0.0899323604656,9.98876900754
259520000000,-0.903050933658,0.537739134685,-0.177921294954,-0.148892732258,-0.0765788422266,9.95019312385
259530000000,-0.799679765539,0.543595821876,-0.186366852513,-0.147391325125,-0.0632557321717,9.91638987553
259540000000,-0.679642914205,0.546698668049,-0.194519637727,-0.142964822299,-0.0488970031083,9.9274649942
259550000000,-0.549515618587,0.547004811637,-0.202524235992,-0.137807942839,-0.0335848150021,9.91121718652
259560000000,-0.411996208332,0.545622067884,-0.210479565881,-0.13203774514,-0.0177420710709,9.89027921898
259570000000,-0.270294189884,0.544093249802,-0.218447015959,-0.125800371137,-0.00190851523074,9.87162947824
259580000000,-0.127870819796,0.542576466858,-0.226465783294,-0.119039730423,0.0134688774475,9.85616309167
259590000000,0.00456076624676,0.537683963608,-0.2341688172,-0.110204909468,0.0254925152142,9.8645444582
259600000000,0.132486136227,0.530293783933,-0.241745616556,-0.101628123315,0.0374029047739,9.85062485151
259610000000,0.258897270255,0.522120160651,-0.249278516837,-0.0933794652959,0.0490981665025,9.83212467782
259620000000,0.38371222963,0.514300847511,-0.256814977709,-0.0854447078583,0.0603176693767,9.814913897
259630000000,0.48528019836,0.502934691192,-0.264097111082,-0.0772693410551,0.0666629922253,9.86576847761
259640000000,0.568938801816,0.487499329195,-0.27118124331,-0.0691271478037,0.0710554336787,9.87571297623
259650000000,0.638314061793,0.468295564199,-0.278090643402,-0.0613106684422,0.0737092592113,9.87145231599
259660000000,0.700129599905,0.447664987219,-0.284906375122,-0.0540894368633,0.0756586581504,9.84244262552
259670000000,0.756222032213,0.426713015535,-0.291667677771,-0.0475279892389,0.0768936227578,9.81073110799
259680000000,0.807489175817,0.404950255424,-0.298397137493,-0.0414522502292,0.0775672171258,9.78459516909
259690000000,0.838003459621,0.376979096812,-0.304819768436,-0.0359875782098,0.0746338773569,9.82951201448
259700000000,0.858720060669,0.345782579106,-0.311052049461,-0.0306395695066,0.0711771580111,9.82128699024
259710000000,0.874650310662,0.313838534739,-0.317176870758,-0.0258058113831,0.067462622254,9.79677408855
259720000000,0.886890424107,0.281921335478,-0.323213388085,-0.0214929401194,0.0634705218554,9.77146775028
259730000000,0.895684414655,0.249065702223,-0.329177347384,-0.0174685746339,0.0592606469,9.75130529365
259740000000,0.891883475215,0.21004100009,-0.334810881858,-0.0142133109565,0.0530213859147,9.78127226338
259750000000,0.882145396641,0.167589988573,-0.340247006131,-0.0106964960098,0.0466839939182,9.77638074007
259760000000,0.869420609497,0.124554539508,-0.345556643426,-0.00742869708284,0.0403493304794,9.76081406681
259770000000,0.854041516511,0.0822944281778,-0.350766891054,-0.00452786284211,0.0339343821495,9.74471711221
259780000000,0.831803187273,0.0370778915545,-0.355570920626,-0.00295464699053,0.0264686449185,9.76341307943
259790000000,0.806212624309,-0.011038963519,-0.360126754961,-0.000638503077522,0.0191948042465,9.75914126046
259800000000,0.779974253879,-0.061439038689,-0.364531769237,0.00203437913516,0.0122835089585,9.74802582208
259810000000,0.75373661283,-0.112490248841,-0.368838791962,0.00470553305943,0.00564010878959,9.73626079842
259820000000,0.72621589093,-0.162914477409,-0.373057693061,0.00722487745205,-0.000995319200418,9.7266316663
259830000000,0.698777187658,-0.211890651551,-0.376899999932,0.00804552825072,-0.0072888464196,9.75429516427
259840000000,0.671192252743,-0.26067778514,-0.380528325528,0.00954477954276,-0.0133111932954,9.75618660375
259850000000,0.644934403063,-0.309756950421,-0.384028964194,0.0114165893093,-0.0188357727338,9.74931870182
259860000000,0.620635535733,-0.358619930031,-0.387440723956,0.0134154571349,-0.0238717862058,9.74035051979
259870000000,0.597008412216,-0.406785404358,-0.390791651824,0.0154539660357,-0.0286927867793,9.73234255152
259880000000,0.57642180443,-0.449547137266,-0.393804379611,0.0156727963305,-0.0325249630475,9.77031484134
259890000000,0.557038093994,-0.488690916966,-0.396580202614,0.0160084057421,-0.036066374365,9.78611842887
259900000000,0.538753920011,-0.526125432435,-0.399226065222,0.0166801175433,-0.0392912446501,9.78238499743
259910000000,0.522301213771,-0.561930371939,-0.40180310267,0.0174463430986,-0.0420764087519,9.77300876745
259920000000,0.507409569111,-0.595870663291,-0.404315755567,0.0182176885985,-0.0445282450318,9.76363929627
259930000000,0.493965182693,-0.622480161895,-0.40658297095,0.0175540113581,-0.0462591105835,9.80006878278
259940000000,0.480315501112,-0.646107345298,-0.40872531529,0.0171979149952,-0.0480199812311,9.80495833744
259950000000,0.466232803227,-0.669006239794,-0.410796766166,0.0171504862378,-0.0497250176772,9.79891674847
259960000000,0.452388308907,-0.691307011338,-0.412825019035,0.0172498809885,-0.051249292779,9.79033249712
259970000000,0.43787026465,-0.706091377166,-0.4146559034,0.0159754408452,-0.0523173611414,9.82330949067
259980000000,0.42287430607,-0.715878037335,-0.4163735492,0.0146024353116,-0.0534422228585,9.82897346362
259990000000,0.407192254052,-0.723176071159,-0.418034708962,0.0133351847289,-0.0546252812871,9.82549331768
260000000000,0.39096669086,-0.730241162863,-0.419663002077,0.0123679602906,-0.055799454076,9.81942464367
260010000000,0.37472859445,-0.737957092795,-0.421281872694,0.0116963645927,-0.0568758005564,9.81298158825
260020000000,0.355372438351,-0.739417970974,-0.422701136482,0.0098396676773,-0.0577781880913,9.85116525918
260030000000,0.33404976122,-0.736282723903,-0.424028494757,0.00783060889832,-0.0589618021388,9.86080250477
260040000000,0.311121449365,-0.729835687898,-0.425303335987,0.00573583140835,-0.0603589028582,9.86063593826
260050000000,0.28724756025,-0.721989908101,-0.426564401913,0.00377048085515,-0.06183032644,9.85759464086
260060000000,0.263454936388,-0.714416062139,-0.427816760913,0.0020883636344,-0.0632111161323,9.85358840715
260070000000,0.237406994182,-0.703083031936,-0.428910076629,-0.000287430834793,-0.0643351536335,9.88577346278
260080000000,0.210018366593,-0.689153228302,-0.429921725557,-0.00265667467196,-0.0657421225282,9.89388073381
260090000000,0.181013659247,-0.672702723099,-0.430891849464,-0.00511506807621,-0.0674422938412,9.89375544082
260100000000,0.150440000086,-0.654358471169,-0.431856712942,-0.00758579300053,-0.0693523436274,9.89165787382
260110000000,0.118862658299,-0.633407998541,-0.432696719,-0.0103785931329,-0.0708795341417,9.91188319881
260120000000,0.08807069883,-0.611461361524,-0.433436782755,-0.013025906442,-0.0722874148798,9.92072631372
260130000000,0.0587517470838,-0.588855296934,-0.434110072861,-0.0155770436688,-0.0735241652158,9.92476916808
260140000000,0.0297145388328,-0.565297340778,-0.434751879597,-0.0180749313803,-0.0749118212516,9.92284795862
260150000000,-0.000305812925056,-0.540517299267,-0.43538250426,-0.0205678636542,-0.0765367180676,9.91980595142
260160000000,-0.0313537206583,-0.514922836751,-0.436012681158,-0.0229945645336,-0.0782994778119,9.91709922482
260170000000,-0.0597081834445,-0.488917463625,-0.436522980571,-0.0253892434353,-0.0791949025537,9.92985654824
260180000000,-0.0853465475004,-0.462941793447,-0.436973898929,-0.0275889848331,-0.0799428116381,9.93108534181
260190000000,-0.109001014139,-0.436836192723,-0.437400533395,-0.029671542042,-0.0805944158641,9.9286112715
260200000000,-0.13222332228,-0.410337635551,-0.437806909766,-0.0316900662356,-0.0813368864781,9.92556023917
260210000000,-0.152561897946,-0.383836502084,-0.438085409977,-0.0335883046285,-0.0813504824739,9.93452518746
260220000000,-0.171569393497,-0.357424139129,-0.438294864218,-0.0353378026614,-0.0814425472677,9.93385860244
260230000000,-0.188978924057,-0.331129913435,-0.438475255869,-0.0369676787793,-0.0814232009778,9.9303377631
260240000000,-0.204450256147,-0.304746373747,-0.438635531438,-0.0385301162986,-0.0812301778209,9.92668685659
260250000000,-0.218606872713,-0.278089772783,-0.438777815723,-0.0400542413744,-0.0809773194497,9.92377382683
260260000000,-0.228385064522,-0.252152947293,-0.438772842116,-0.0413072775873,-0.0798504006379,9.93433815342
260270000000,-0.236486198678,-0.226858602178,-0.438687224993,-0.0424259430175,-0.0788277727744,9.93303131844
260280000000,-0.243600746395,-0.202062250603,-0.438546647583,-0.0434424019822,-0.0778244729515,9.92823275639
260290000000,-0.249443355312,-0.177379396762,-0.438373068382,-0.0444250639612,-0.0767352212242,9.92330189127
260300000000,-0.253906084518,-0.152416905632,-0.438181744783,-0.0454261182109,-0.0755543431782,9.91936609232
260310000000,-0.254382390168,-0.128410948352,-0.437848538892,-0.0461006687114,-0.0736885031734,9.92695937526
260320000000,-0.253127666859,-0.105208789879,-0.437429763441,-0.0466929479599,-0.0718746687873,9.92420871848
260330000000,-0.251221375523,-0.0828585276418,-0.43696055688,-0.0471865959659,-0.0701335726266,9.91869445246
260340000000,-0.248756113526,-0.0610684613413,-0.436459627292,-0.0476313650131,-0.0684092742029,9.91331270879
260350000000,-0.245507790975,-0.039314716658,-0.435938745065,-0.0481061912206,-0.0666551942962,9.90900854632
260360000000,-0.240141549642,-0.0187921045355,-0.435288304392,-0.0482366144429,-0.0645810339067,9.91327450931
260370000000,-0.233642656632,0.000713010077976,-0.434556409963,-0.0482856875123,-0.0625157098462,9.910640949
260380000000,-0.226686932667,0.0192749917536,-0.433763065089,-0.0482772467538,-0.0605217144874,9.90481384327
260390000000,-0.219475263463,0.0369188718172,-0.432941947553,-0.0482027740241,-0.0585836540163,9.89905399856
260400000000,-0.211939802622,0.0540167311519,-0.432088884468,-0.0481209138631,-0.0566690865827,9.89437629695
260410000000,-0.204314168913,0.0696165827154,-0.43114841029,-0.0477412634517,-0.0548094639729,9.89514810175
260420000000,-0.196629072574,0.0846942867529,-0.430167748101,-0.0474251182632,-0.0530038067026,9.89126270839
260430000000,-0.188963834848,0.099413191283,-0.42914440462,-0.0471297605859,-0.0512659675856,9.8866431022
260440000000,-0.181291995844,0.113578567576,-0.428106702854,-0.0468041840749,-0.049578221723,9.88264302165
260450000000,-0.174344783287,0.125581631871,-0.42698653892,-0.0461024362228,-0.048080620173,9.88313711873
260460000000,-0.167676465452,0.136439104605,-0.425826238991,-0.0454053348813,-0.046624926305,9.87969677802
260470000000,-0.161217704262,0.146975419296,-0.424639970591,-0.044775747539,-0.0452311112208,9.87566254475
260480000000,-0.155039138148,0.157565744562,-0.423433721283,-0.0442252908192,-0.0439100851139,9.87212743963
260490000000,-0.14904814799,0.168103832718,-0.422217364197,-0.0437120532319,-0.0426398570153,9.86935991696
260500000000,-0.14392725593,0.176740223538,-0.420931699301,-0.0428631623891,-0.0415801148929,9.87108160123
260510000000,-0.139040288996,0.184079894731,-0.419601810631,-0.0419786156874,-0.0405180727483,9.86876742675
260520000000,-0.134259064759,0.190751835255,-0.418251964501,-0.0411172367185,-0.0394788195454,9.86566990713
260530000000,-0.129747509813,0.197354059042,-0.416889517378,-0.0403361667644,-0.0384988201204,9.86285257556
260540000000,-0.126413732706,0.20235114289,-0.415442716574,-0.0392748016538,-0.0377871519293,9.86577096238
260550000000,-0.123663604367,0.206381785325,-0.413960952146,-0.0382130087087,-0.0370909907405,9.86328561769
260560000000,-0.120963830919,0.209530390803,-0.412449244431,-0.0371188018946,-0.0363711088199,9.85966021216
260570000000,-0.118087997576,0.211939271393,-0.410929357178,-0.0360059254314,-0.0356239329491,9.85641533293
260580000000,-0.115371447609,0.212745236923,-0.409348215641,-0.0346858277823,-0.0349834570068,9.85848569122
260590000000,-0.112969599808,0.212735438763,-0.407716283138,-0.033373534433,-0.0343762904313,9.85736405373
260600000000,-0.110854065671,0.212244668957,-0.406041852504,-0.0320762645906,-0.0337984704831,9.85516560986
260610000000,-0.108825549076,0.211363935455,-0.404351829423,-0.0307947822646,-0.033201805906,9.85174580368
260620000000,-0.10657535525,0.209897315523,-0.402654625977,-0.0294937513697,-0.0325587391073,9.84863665486
260630000000,-0.10405342383,0.207873131878,-0.400950192987,-0.0281888519552,-0.0318819824282,9.84624922384
260640000000,-0.10116605722,0.205009938741,-0.39918773005,-0.026807542195,-0.0312148765485,9.84778533119
260650000000,-0.098332607529,0.202034376818,-0.39740072207,-0.0255125896587,-0.0305494735393,9.8461748479
260660000000,-0.0956626636608,0.19916980598,-0.395603934041,-0.0242996884138,-0.0298923206351,9.84384858428
260670000000,-0.0929758594206,0.196206627594,-0.393797421008,-0.0231172702566,-0.0292172099619,9.84173218098
260680000000,-0.0896676081532,0.192469204844,-0.391954025586,-0.0218465800391,-0.0284909381803,9.8429598985
260690000000,-0.0859605332033,0.1881098204,-0.390086437217,-0.0205750466083,-0.0277092212202,9.84157946251
260700000000,-0.0821640968805,0.183589267524,-0.388205224974,-0.01936349226,-0.0269214062283,9.8396560389
260710000000,-0.0784909735105,0.179298642205,-0.38631267837,-0.0182508103915,-0.0261536873586,9.83786656007
260720000000,-0.074950672427,0.175284021198,-0.384422696027,-0.0172178625644,-0.0254002358737,9.83640211519
260730000000,-0.071140520604,0.17101448997,-0.382486637611,-0.0161601874982,-0.0246418734572,9.83787178561
260740000000,-0.0670704674209,0.166284263341,-0.380538780476,-0.0150884848733,-0.0238396128142,9.836864761
260750000000,-0.0628529191136,0.16116025636,-0.378583581106,-0.014024724798,-0.0230193655938,9.83532664576
260760000000,-0.0586392958106,0.156005480561,-0.376625916455,-0.013020874655,-0.0222071177175,9.83389782426
260770000000,-0.0546190396837,0.151053214684,-0.37462542353,-0.0120786877835,-0.0214739808973,9.83541170954
260780000000,-0.050719704581,0.146321311269,-0.37259797254,-0.0112017823859,-0.0207329867917,9.83410611008
260790000000,-0.0468514929917,0.141521367242,-0.370554205656,-0.0103395383485,-0.0199846141468,9.83219752634
260800000000,-0.0429674606862,0.13638922544,-0.368499025526,-0.00946558100303,-0.0192313492262,9.83048511798
260810000000,-0.0390768040092,0.130994650265,-0.366455103211,-0.00860149671909,-0.0184822910702,9.82916216741
260820000000,-0.0356882732703,0.125717422751,-0.364368930894,-0.00778921664355,-0.0178564362102,9.83017952441
260830000000,-0.0327190200344,0.120746719555,-0.362254897593,-0.0070518373547,-0.0172656704651,9.82925436121
260840000000,-0.0299965707556,0.115996541746,-0.360129122874,-0.00636400212565,-0.0166864251578,9.82742376068
260850000000,-0.0274042892069,0.111188331058,-0.357992870274,-0.0056828377293,-0.016117049029,9.82566138818
260860000000,-0.0248906371452,0.106139437754,-0.355856579877,-0.00499026020918,-0.015558154976,9.82425890748
260870000000,-0.0228196618312,0.101024631459,-0.353700122527,-0.00431923786867,-0.0150879432948,9.82418923257
260880000000,-0.0210212682114,0.0960317817588,-0.351531352706,-0.00369520571715,-0.0146319344994,9.82311307837
260890000000,-0.0193627301253,0.0912800460969,-0.349358530808,-0.00312554096833,-0.0141869809729,9.82191391936
260900000000,-0.0177909323771,0.0866820857568,-0.347181067571,-0.0025866032627,-0.0137509891376,9.82088911064
260910000000,-0.0167322101457,0.0822006510394,-0.344982311159,-0.00206763313484,-0.0134192464723,9.82111542839
260920000000,-0.0160067569787,0.0776215829362,-0.342772516849,-0.00154541669359,-0.0131050229265,9.81994353269
260930000000,-0.0154824309743,0.072981571509,-0.340553194978,-0.00103523253332,-0.0128071025083,9.81856637297
260940000000,-0.0150818254835,0.0684454402911,-0.338329101479,-0.000558878153692,-0.0125172638688,9.81737214981
260950000000,-0.0147065128824,0.0640846532985,-0.336112183263,-0.00011894669433,-0.012228735206,9.81644236745
260960000000,-0.0145852073458,0.0600231677527,-0.333867511065,0.000272844199205,-0.0119954611466,9.81637110147
260970000000,-0.0146524028209,0.0560677667612,-0.33161130852,0.000651720104078,-0.011776834383,9.81534304373
260980000000,-0.0148886011172,0.0520882187457,-0.32933949011,0.00103065870991,-0.0115745333097,9.81400829185
260990000000,-0.0152569791184,0.0481097265321,-0.327075321913,0.00139774936137,-0.011383314815,9.81282417479
261000000000,-0.0156554179651,0.0442176654989,-0.324804496212,0.00174038247169,-0.0111917549309,9.81189764558
261010000000,-0.0159860421562,0.0406465909961,-0.322517992072,0.00202935974798,-0.0109942193176,9.8114572602
261020000000,-0.016273123648,0.0372254128334,-0.320229533478,0.00230282843844,-0.0107931354061,9.81049522075
261030000000,-0.0166013413566,0.0338243665723,-0.317945468666,0.00257393368016,-0.0106023808522,9.80955203642
261040000000,-0.0170343372353,0.0303953848767,-0.31565193486,0.00284355324008,-0.0104265120114,9.80878670158
261050000000,-0.0173670237232,0.0271690521375,-0.313347075196,0.00307027672021,-0.0102339412446,9.80861996236
261060000000,-0.0175916755959,0.0241137890868,-0.311040529737,0.00327590095802,-0.0100282972324,9.80780670567
261070000000,-0.0176978655657,0.0211739984568,-0.308730736244,0.00346599440302,-0.00981080684608,9.80694608265
261080000000,-0.0177502883117,0.0182816397841,-0.306424481463,0.00364923883691,-0.00959317840337,9.80622788339
261090000000,-0.0178367836758,0.0154011063888,-0.304117249475,0.00383000080062,-0.00938751782005,9.80568303105
261100000000,-0.0177747684653,0.012773901597,-0.301798900007,0.00396394527082,-0.00916065472706,9.80591282953
261110000000,-0.0176172412266,0.0103047807716,-0.299485160943,0.00408280239801,-0.0089289411872,9.80521628514
261120000000,-0.0173607482842,0.00793124657063,-0.297168967272,0.00419046408693,-0.0086878257524,9.80436714276
261130000000,-0.0170179032211,0.00560966308995,-0.294849173815,0.00429253806441,-0.00844081341951,9.80362672302
261140000000,-0.0166460418423,0.00329742606945,-0.292527324521,0.00439182155887,-0.00819805503602,9.80305361502
261150000000,-0.0161647948197,0.00125908974265,-0.290210738159,0.00444348746971,-0.00794523721215,9.80315552913
261160000000,-0.0156341471998,-0.000554257074474,-0.287893483047,0.00447285380959,-0.00769451820248,9.80255382523
261170000000,-0.0150610987677,-0.00224246305557,-0.285571016626,0.0044913486214,-0.00744326375502,9.80171013631
261180000000,-0.0144381053077,-0.0038708555911,-0.283252315706,0.00450614266478,-0.00719035665248,9.80094696479
261190000000,-0.013766832205,-0.00548501889073,-0.280925998104,0.00452127403524,-0.00693982553697,9.80034670741
261200000000,-0.0131214528853,-0.00690372720581,-0.278616303637,0.00450368874662,-0.00669995966076,9.80006055432
261210000000,-0.0124940986562,-0.00818552641752,-0.27630506191,0.0044758032763,-0.00646761973557,9.79947744853
261220000000,-0.0118681646497,-0.00937372326194,-0.273993063058,0.00443989747772,-0.00624053078493,9.79891080236
261230000000,-0.0112386909844,-0.0105116389031,-0.271680913092,0.00440204837396,-0.00601712088236,9.79845214943
261240000000,-0.0106945442409,-0.0114943833955,-0.269377803296,0.00434303929551,-0.00581284289444,9.79829443113
261250000000,-0.0102033622383,-0.0124151174477,-0.267075899501,0.00428390036293,-0.00561926395514,9.79783294037
261260000000,-0.0097479176094,-0.0132847609362,-0.264769892064,0.00422321427881,-0.00543522581512,9.79736352983
261270000000,-0.00931482215879,-0.014104795576,-0.262474728027,0.00415924427805,-0.00525625038538,9.79697713747
261280000000,-0.00886943446824,-0.0148801035964,-0.260180727446,0.00409380038011,-0.00507930973569,9.79668624622
261290000000,-0.00855029382783,-0.0154918504059,-0.257890815247,0.00400785188188,-0.00492925737091,9.79687206745
261300000000,-0.00831773007713,-0.0160396727363,-0.255610763388,0.00392350762513,-0.00479167227579,9.79653719207
261310000000,-0.00816761318487,-0.0165591503132,-0.253327670241,0.00384205295708,-0.00466684435078,9.79610586359
261320000000,-0.00806796035456,-0.0170535467281,-0.251059119535,0.0037618022597,-0.00454923406934,9.79572370927
261330000000,-0.00804038937088,-0.0174109060817,-0.248797838015,0.0036653005343,-0.00444768318255,9.79580919387
261340000000,-0.00804594369149,-0.0176702806201,-0.246538616008,0.00356378471453,-0.00434971135674,9.79556302837
261350000000,-0.00808962936095,-0.0178614356215,-0.244285117974,0.00346047218193,-0.00425960762439,9.79523262405
261360000000,-0.00819888204315,-0.0180258526987,-0.242041973422,0.00336075684182,-0.00418119785253,9.79482639413
261370000000,-0.00836109428129,-0.0181778318475,-0.239788554589,0.00326480950023,-0.00411352457698,9.794470742
261380000000,-0.00855317878367,-0.0183138136702,-0.237546420567,0.00317150798628,-0.00404924022973,9.79419487562
261390000000,-0.00872650771641,-0.0183693630342,-0.235320578147,0.00306892725279,-0.00398259443467,9.79445061826
261400000000,-0.00884599959486,-0.0183837590189,-0.233100617794,0.00296759340024,-0.00391195843492,9.79425339348
261410000000,-0.00896005499728,-0.01837274433,-0.230879296673,0.00286951895215,-0.00384470378882,9.7939555282
261420000000,-0.00911751280871,-0.0183456818295,-0.228666578403,0.00277548130203,-0.00378705521655,9.79368110921
261430000000,-0.00932635175195,-0.018312137208,-0.226453158879,0.00268510230094,-0.00373763460832,9.79346329917
261440000000,-0.00949004629074,-0.0182307941278,-0.224257276919,0.00258906606813,-0.00368055243011,9.79400993016
261450000000,-0.00958307265491,-0.0181157453426,-0.222063158521,0.00249492702781,-0.00361533721281,9.7939011129
261460000000,-0.0096062218929,-0.0179889000195,-0.219868371092,0.00240359925873,-0.00354465021826,9.79361484721
261470000000,-0.00961670546653,-0.0178539772438,-0.217676944856,0.00231545060641,-0.00347693170387,9.79332703801
261480000000,-0.00957698944533,-0.0176653234624,-0.215511797847,0.00222079623117,-0.0034048616015,9.79424562236
261490000000,-0.00953091014748,-0.0174400128489,-0.213356060027,0.00212708675944,-0.00333605003804,9.79413409311
261500000000,-0.00946244020623,-0.0171978738714,-0.211209387173,0.00203528323718,-0.00326408584112,9.79373251374
261510000000,-0.0093324351583,-0.0169476165802,-0.209071638585,0.00194670116236,-0.00318472260579,9.79331664613
261520000000,-0.0091484872221,-0.0167020060686,-0.206940791908,0.0018617376058,-0.00310136402153,9.79297208537
261530000000,-0.00888011267201,-0.0164225275097,-0.204825689662,0.00177190587196,-0.00301293408282,9.79409315518
261540000000,-0.00861166573565,-0.0161092779612,-0.202716906428,0.00168110832601,-0.00292907597874,9.79431110992
261550000000,-0.00836349836699,-0.0157670173983,-0.200620545667,0.00159067175033,-0.00284867289947,9.79390713846
261560000000,-0.00809072029638,-0.0154180569983,-0.198536403094,0.00150274654143,-0.00276565677997,9.79338917959
261570000000,-0.00776851516077,-0.0150758500791,-0.196449655679,0.00141917686319,-0.00267700263641,9.7929309802
261580000000,-0.00740205162279,-0.0147253688174,-0.194381205461,0.00133644439435,-0.00258664826833,9.79354076359
261590000000,-0.00703223650653,-0.0143728334066,-0.192322731421,0.00125502160117,-0.00250006605759,9.79337196637
261600000000,-0.0067000767998,-0.0139933445102,-0.190265839399,0.00117321297755,-0.00242045607056,9.79299924931
261610000000,-0.00638477114101,-0.0136077991905,-0.188219515738,0.00109199813466,-0.00234483953425,9.79263280168
261620000000,-0.00609586682735,-0.0132007555495,-0.186197014404,0.00101199735609,-0.00227501098618,9.79405023976
261630000000,-0.00578860163604,-0.0128121911739,-0.184185633958,0.000937133567744,-0.00220199041553,9.79399859446
261640000000,-0.00546666167586,-0.0124368754052,-0.182176073287,0.000866258353009,-0.00212896821411,9.79351356705
261650000000,-0.00515307810597,-0.012055439058,-0.180174375454,0.000796360702981,-0.00206027223104,9.79298598048
261660000000,-0.00487435776368,-0.0116625274115,-0.178181664687,0.000725728182499,-0.00199701569712,9.79254140834
261670000000,-0.00466175660348,-0.0112493747435,-0.176206141514,0.000655627900665,-0.00194758692962,9.79410928536
261680000000,-0.00449662998852,-0.010843478667,-0.174246576374,0.000589574983197,-0.00190078393312,9.79447041793
261690000000,-0.00433518650697,-0.0104545975086,-0.172300471844,0.000528984356616,-0.00185330352705,9.7940047372
261700000000,-0.00416193145067,-0.0100846940306,-0.170362034953,0.000472054608894,-0.0018069712723,9.79337435351
261710000000,-0.00400945826197,-0.0097081448533,-0.168425740257,0.000415645062867,-0.00176400474354,9.79280879351
261720000000,-0.00388311330995,-0.00931389190018,-0.166497277075,0.000358410673885,-0.00172453348328,9.79236550851
261730000000,-0.00380380040292,-0.00891664962313,-0.16459324765,0.000303240197842,-0.00169431315266,9.79368017472
261740000000,-0.00373503178434,-0.00852838863613,-0.162690487335,0.000252080178195,-0.0016641672979,9.79363911279
261750000000,-0.00366828777095,-0.00815566399561,-0.160798011494,0.000205677467482,-0.00163366709231,9.7931969102
261760000000,-0.00360190549993,-0.00780135651988,-0.158915339786,0.000162043161492,-0.00160388968337,9.79271406187
261770000000,-0.00356012914015,-0.00745069734339,-0.157062205377,0.000119797282947,-0.00158078674608,9.79404258838
261780000000,-0.00354545324108,-0.00708968170563,-0.155209657945,7.71147634845e-05,-0.00155960589716,9.7939491281
261790000000,-0.00354668652471,-0.00672092842245,-0.153366339479,3.55423542953e-05,-0.00153940066598,9.79344415692
261800000000,-0.00355083164707,-0.00636341350572,-0.151525206619,-2.79410015987e-06,-0.00151908403664,9.79290681233
261810000000,-0.00354916314857,-0.00604234398,-0.149709974757,-3.5038872482e-05,-0.00149969084754,9.79472128715
261820000000,-0.00354126756368,-0.00573700746271,-0.147915442842,-6.48122934997e-05,-0.00147990791229,9.79466451425
261830000000,-0.0035378635179,-0.00543063241168,-0.146126033632,-9.45076905381e-05,-0.00146077831085,9.79405406167
261840000000,-0.00354296165201,-0.00511691628116,-0.144353150139,-0.000124790750125,-0.00144251695883,9.79338758978
261850000000,-0.00354683946801,-0.00479403163983,-0.142576654846,-0.000154310772289,-0.00142463820242,9.79282522549
261860000000,-0.00353859511186,-0.00450339306611,-0.140831381031,-0.000178537167097,-0.00140383958652,9.79471328464
261870000000,-0.0035027068174,-0.00423787107544,-0.139101793222,-0.000199446730244,-0.00138145294888,9.79469133858
261880000000,-0.00346394778742,-0.00398446847717,-0.137375886982,-0.000218849078777,-0.00135845778375,9.79409767101
261890000000,-0.0034248112361,-0.00372359333939,-0.135663290889,-0.000238603854834,-0.0013356795811,9.79343947751
261900000000,-0.0033848600126,-0.0034622192408,-0.13395463053,-0.000259079363624,-0.00131338394952,9.79288133241
