#timestamp [ns],w_RS_S_x [rad s^-1],w_RS_S_y [rad s^-1],w_RS_S_z [rad s^-1],a_RS_S_x [m s^-2],a_RS_S_y [m s^-2],a_RS_S_z [m s^-2]
1403715523912140000,-0.0006981317,0.0195476876,0.0767944871,9.218251,0.3023717083,-3.1544724167
1403715523917140000,-0.0006981317,0.020943951,0.0726056969,9.3163175,0.2941995,-3.2525389167
1403715523922140000,-0.0034906585,0.0230383461,0.074700092,9.2100787917,0.2941995,-3.1789890417
1403715523927140000,-0.0027925268,0.0174532925,0.0781907505,9.3244897083,0.3023717083,-3.260711125
1403715523932140000,-0.0034906585,0.0223402144,0.0802851456,9.2264232083,0.269682875,-3.1953334583
1403715523937140000,-0.0027925268,0.0216420827,0.0809832773,9.3244897083,0.34323275,-3.2198500833
1403715523942140000,-0.0006981317,0.0244346095,0.0774926188,9.2264232083,0.34323275,-3.1789890417
1403715523947140000,0,0.0188495559,0.0781907505,9.2999730833,0.3595771667,-3.1789890417
1403715523952140000,0,0.020943951,0.0788888822,9.2345954167,0.3350605417,-3.211677875
1403715523957140000,-0.0020943951,0.0202458193,0.0774926188,9.3081452917,0.367749375,-3.2035056667
1403715523962140000,-0.0027925268,0.0244346095,0.0795870139,9.2019065833,0.3023717083,-3.138128
1403715523967140000,-0.0013962634,0.0202458193,0.0767944871,9.291800875,0.34323275,-3.1708168333
1403715523972140000,-0.0013962634,0.0216420827,0.0760963554,9.2345954167,0.3105439167,-3.2035056667
1403715523977140000,-0.0034906585,0.0202458193,0.0753982237,9.291800875,0.3514049583,-3.2198500833
1403715523982140000,-0.0048869219,0.0237364778,0.0767944871,9.2591120417,0.3105439167,-3.18716125
1403715523987140000,-0.0027925268,0.0195476876,0.0753982237,9.2754564583,0.34323275,-3.1953334583
1403715523992140000,-0.0034906585,0.020943951,0.0760963554,9.2264232083,0.318716125,-3.211677875
1403715523997140000,-0.0034906585,0.0174532925,0.074700092,9.242767625,0.3514049583,-3.2198500833
1403715524002140000,-0.0034906585,0.0188495559,0.0802851456,9.2264232083,0.2941995,-3.1708168333
1403715524007140000,-0.0048869219,0.0188495559,0.0781907505,9.2836286667,0.3595771667,-3.211677875
1403715524012140000,-0.0034906585,0.0237364778,0.0753982237,9.2264232083,0.3350605417,-3.2035056667
1403715524017140000,0.0006981317,0.0167551608,0.0788888822,9.26728425,0.3350605417,-3.2035056667
1403715524022140000,-0.0027925268,0.0167551608,0.0788888822,9.242767625,0.3023717083,-3.2035056667
1403715524027140000,-0.0013962634,0.0167551608,0.0781907505,9.2754564583,0.3514049583,-3.18716125
1403715524032140000,-0.0006981317,0.0223402144,0.0781907505,9.2591120417,0.318716125,-3.18716125
1403715524037140000,-0.0013962634,0.0230383461,0.0760963554,9.2836286667,0.318716125,-3.2035056667
1403715524042140000,0.0020943951,0.0237364778,0.0837758041,9.242767625,0.3023717083,-3.1708168333
1403715524047140000,-0.0013962634,0.0181514242,0.0767944871,9.3244897083,0.3350605417,-3.211677875
1403715524052140000,-0.0027925268,0.0216420827,0.0767944871,9.26728425,0.3023717083,-3.1953334583
1403715524057140000,-0.0020943951,0.0202458193,0.0788888822,9.2836286667,0.34323275,-3.2035056667
1403715524062140000,0.0027925268,0.0195476876,0.0788888822,9.2509398333,0.3105439167,-3.1708168333
1403715524067140000,0.0027925268,0.0153588974,0.0740019603,9.2836286667,0.34323275,-3.1953334583
1403715524072140000,-0.0013962634,0.0188495559,0.0795870139,9.2345954167,0.269682875,-3.2035056667
1403715524077140000,-0.0020943951,0.013962634,0.074700092,9.3081452917,0.3268883333,-3.1953334583
1403715524082140000,-0.0006981317,0.0181514242,0.0753982237,9.1855621667,0.3268883333,-3.1953334583
1403715524087140000,0,0.0167551608,0.0760963554,9.2836286667,0.3514049583,-3.18716125
1403715524092140000,-0.0006981317,0.0181514242,0.0788888822,9.2100787917,0.2778550833,-3.162644625
1403715524097140000,-0.0006981317,0.0181514242,0.0781907505,9.26728425,0.318716125,-3.1789890417
1403715524102140000,-0.0013962634,0.0223402144,0.0781907505,9.2019065833,0.2778550833,-3.1708168333
1403715524107140000,-0.0027925268,0.0181514242,0.0760963554,9.242767625,0.3595771667,-3.211677875
1403715524112140000,-0.0027925268,0.020943951,0.0788888822,9.2264232083,0.34323275,-3.2198500833
1403715524117140000,-0.0034906585,0.0181514242,0.0802851456,9.193734375,0.3350605417,-3.1789890417
1403715524122140000,-0.0027925268,0.0244346095,0.0795870139,9.2019065833,0.3023717083,-3.2035056667
1403715524127140000,-0.0006981317,0.0216420827,0.0760963554,9.26728425,0.3350605417,-3.1953334583
1403715524132140000,-0.0027925268,0.0181514242,0.0809832773,9.2264232083,0.3268883333,-3.18716125
1403715524137140000,-0.0020943951,0.0188495559,0.081681409,9.2754564583,0.3023717083,-3.2280222917
1403715524142140000,-0.0013962634,0.0230383461,0.0795870139,9.2264232083,0.3268883333,-3.211677875
1403715524147140000,-0.0013962634,0.0195476876,0.0753982237,9.291800875,0.34323275,-3.2525389167
1403715524152140000,-0.0006981317,0.0223402144,0.0774926188,9.2754564583,0.2941995,-3.211677875
1403715524157140000,-0.0006981317,0.0195476876,0.0788888822,9.2591120417,0.3759215833,-3.1789890417
1403715524162140000,-0.0020943951,0.0202458193,0.0788888822,9.2345954167,0.2941995,-3.2198500833
1403715524167140000,-0.0020943951,0.0181514242,0.0760963554,9.2264232083,0.318716125,-3.1463002083
1403715524172140000,-0.0027925268,0.020943951,0.0781907505,9.2509398333,0.2615106667,-3.1953334583
1403715524177140000,-0.0027925268,0.0202458193,0.0767944871,9.26728425,0.3514049583,-3.2198500833
1403715524182140000,-0.0020943951,0.0195476876,0.0781907505,9.2836286667,0.2941995,-3.1789890417
1403715524187140000,-0.0027925268,0.020943951,0.0767944871,9.2591120417,0.3268883333,-3.1708168333
1403715524192140000,0,0.020943951,0.0781907505,9.2264232083,0.318716125,-3.2035056667
1403715524197140000,0.0020943951,0.0195476876,0.0767944871,9.2836286667,0.318716125,-3.1789890417
1403715524202140000,0.0020943951,0.0202458193,0.0774926188,9.218251,0.2941995,-3.1953334583
1403715524207140000,0.0006981317,0.0167551608,0.0802851456,9.2836286667,0.3350605417,-3.1953334583
1403715524212140000,-0.0006981317,0.0188495559,0.0823795407,9.2264232083,0.3514049583,-3.1708168333
1403715524217140000,-0.0006981317,0.0202458193,0.0788888822,9.26728425,0.3268883333,-3.1789890417
1403715524222140000,-0.0020943951,0.0223402144,0.0760963554,9.2754564583,0.2860272917,-3.18716125
1403715524227140000,-0.0013962634,0.0188495559,0.0795870139,9.2836286667,0.3105439167,-3.1953334583
1403715524232140000,-0.0055850536,0.0202458193,0.0788888822,9.2509398333,0.2615106667,-3.162644625
1403715524237140000,-0.0027925268,0.0167551608,0.0753982237,9.2999730833,0.318716125,-3.1789890417
1403715524242140000,-0.0020943951,0.0237364778,0.0795870139,9.242767625,0.3023717083,-3.18716125
1403715524247140000,-0.0020943951,0.0167551608,0.0726056969,9.2999730833,0.34323275,-3.1953334583
1403715524252140000,0.0013962634,0.020943951,0.0774926188,9.2836286667,0.3105439167,-3.2443667083
1403715524257140000,-0.0013962634,0.0174532925,0.0753982237,9.340834125,0.3595771667,-3.2361945
1403715524262140000,-0.0006981317,0.0216420827,0.0760963554,9.26728425,0.2860272917,-3.1953334583
1403715524267140000,-0.0020943951,0.020943951,0.0760963554,9.2754564583,0.3514049583,-3.1953334583
1403715524272140000,-0.0020943951,0.0223402144,0.0781907505,9.2264232083,0.3105439167,-3.2035056667
1403715524277140000,-0.0027925268,0.0174532925,0.0760963554,9.2591120417,0.3268883333,-3.1789890417
1403715524282140000,-0.0027925268,0.0188495559,0.0740019603,9.2100787917,0.269682875,-3.2198500833
1403715524287140000,-0.0013962634,0.0188495559,0.0719075652,9.2264232083,0.318716125,-3.162644625
1403715524292140000,-0.0006981317,0.0216420827,0.0802851456,9.2019065833,0.3105439167,-3.162644625
1403715524297140000,-0.0020943951,0.020943951,0.074700092,9.2999730833,0.34323275,-3.2198500833
1403715524302140000,-0.0034906585,0.0188495559,0.0767944871,9.242767625,0.2778550833,-3.1953334583
1403715524307140000,-0.0020943951,0.0160570291,0.0719075652,9.2836286667,0.3268883333,-3.2361945
1403715524312140000,-0.0020943951,0.0202458193,0.0788888822,9.2509398333,0.318716125,-3.2035056667
1403715524317140000,-0.0027925268,0.0167551608,0.0767944871,9.2264232083,0.3350605417,-3.18716125
1403715524322140000,-0.0034906585,0.0174532925,0.0809832773,9.2345954167,0.2860272917,-3.2198500833
1403715524327140000,-0.0027925268,0.0188495559,0.0802851456,9.2836286667,0.3514049583,-3.1708168333
1403715524332140000,0,0.0195476876,0.0774926188,9.2264232083,0.269682875,-3.1789890417
1403715524337140000,-0.0006981317,0.0174532925,0.0753982237,9.2999730833,0.3595771667,-3.1708168333
1403715524342140000,-0.0013962634,0.020943951,0.0767944871,9.242767625,0.24516625,-3.2035056667
1403715524347140000,-0.0055850536,0.0153588974,0.0781907505,9.2999730833,0.3023717083,-3.2035056667
1403715524352140000,-0.0048869219,0.0202458193,0.0823795407,9.2345954167,0.3023717083,-3.2198500833
1403715524357140000,-0.0041887902,0.020943951,0.0753982237,9.2836286667,0.3514049583,-3.2198500833
1403715524362140000,-0.0062831853,0.0244346095,0.0781907505,9.2100787917,0.2860272917,-3.162644625
1403715524367140000,-0.0034906585,0.0174532925,0.074700092,9.242767625,0.3350605417,-3.1953334583
1403715524372140000,-0.0013962634,0.020943951,0.0788888822,9.2264232083,0.3105439167,-3.1708168333
1403715524377140000,0.0006981317,0.0181514242,0.0767944871,9.2345954167,0.318716125,-3.1953334583
1403715524382140000,0,0.0230383461,0.0781907505,9.193734375,0.2778550833,-3.1789890417
1403715524387140000,0.0013962634,0.0167551608,0.0753982237,9.2999730833,0.318716125,-3.2361945
1403715524392140000,-0.0006981317,0.020943951,0.0774926188,9.2100787917,0.2941995,-3.138128
1403715524397140000,-0.0013962634,0.0188495559,0.0781907505,9.2999730833,0.3105439167,-3.211677875
1403715524402140000,-0.0006981317,0.0216420827,0.0823795407,9.2264232083,0.269682875,-3.1789890417
1403715524407140000,-0.0020943951,0.0174532925,0.0774926188,9.26728425,0.3268883333,-3.2198500833
1403715524412140000,-0.0027925268,0.0195476876,0.0760963554,9.2345954167,0.318716125,-3.138128
1403715524417140000,-0.0034906585,0.0202458193,0.0781907505,9.3244897083,0.3023717083,-3.1953334583
1403715524422140000,0,0.0188495559,0.0760963554,9.2754564583,0.3268883333,-3.2035056667
1403715524427140000,-0.0027925268,0.0188495559,0.0740019603,9.2836286667,0.3350605417,-3.1789890417
1403715524432140000,-0.0020943951,0.020943951,0.0781907505,9.26728425,0.3023717083,-3.1708168333
1403715524437140000,-0.0020943951,0.020943951,0.0719075652,9.3163175,0.3023717083,-3.2035056667
1403715524442140000,-0.0027925268,0.0195476876,0.0809832773,9.242767625,0.3350605417,-3.1544724167
1403715524447140000,-0.0048869219,0.0216420827,0.0712094335,9.291800875,0.269682875,-3.2035056667
1403715524452140000,-0.0034906585,0.0202458193,0.0781907505,9.2591120417,0.2941995,-3.1544724167
1403715524457140000,-0.0041887902,0.0223402144,0.0781907505,9.2999730833,0.3023717083,-3.211677875
1403715524462140000,-0.0006981317,0.0202458193,0.0795870139,9.2591120417,0.3105439167,-3.1953334583
1403715524467140000,-0.0006981317,0.0223402144,0.0740019603,9.2754564583,0.3023717083,-3.2035056667
1403715524472140000,0.0013962634,0.0223402144,0.0802851456,9.2509398333,0.3350605417,-3.162644625
1403715524477140000,-0.0013962634,0.0188495559,0.0823795407,9.291800875,0.3350605417,-3.18716125
1403715524482140000,-0.0013962634,0.0202458193,0.081681409,9.218251,0.3268883333,-3.2035056667
1403715524487140000,-0.0013962634,0.0223402144,0.0823795407,9.291800875,0.318716125,-3.2280222917
1403715524492140000,-0.0006981317,0.0188495559,0.0837758041,9.2591120417,0.3023717083,-3.211677875
1403715524497140000,-0.0041887902,0.0195476876,0.0774926188,9.2754564583,0.3023717083,-3.211677875
1403715524502140000,-0.0034906585,0.0174532925,0.0760963554,9.2754564583,0.2860272917,-3.18716125
1403715524507140000,-0.0048869219,0.0223402144,0.074700092,9.2591120417,0.3268883333,-3.211677875
1403715524512140000,-0.0006981317,0.0160570291,0.0767944871,9.2591120417,0.3514049583,-3.211677875
1403715524517140000,-0.0006981317,0.0195476876,0.0753982237,9.242767625,0.3350605417,-3.2198500833
1403715524522140000,-0.0034906585,0.0188495559,0.074700092,9.26728425,0.34323275,-3.1953334583
1403715524527140000,-0.0048869219,0.020943951,0.0760963554,9.2345954167,0.2941995,-3.2280222917
1403715524532140000,-0.0020943951,0.0181514242,0.0733038286,9.3081452917,0.3350605417,-3.2035056667
1403715524537140000,-0.0034906585,0.0216420827,0.0760963554,9.2836286667,0.2941995,-3.211677875
1403715524542140000,-0.0041887902,0.0188495559,0.0781907505,9.242767625,0.318716125,-3.18716125
1403715524547140000,-0.0048869219,0.020943951,0.0802851456,9.2509398333,0.318716125,-3.211677875
1403715524552140000,-0.0027925268,0.020943951,0.0795870139,9.26728425,0.34323275,-3.2280222917
1403715524557140000,-0.0013962634,0.0244346095,0.081681409,9.2509398333,0.3023717083,-3.1953334583
1403715524562140000,-0.0006981317,0.0195476876,0.0788888822,9.2345954167,0.3105439167,-3.1953334583
1403715524567140000,-0.0020943951,0.0195476876,0.0753982237,9.193734375,0.3268883333,-3.2443667083
1403715524572140000,-0.0055850536,0.0160570291,0.0781907505,9.2999730833,0.34323275,-3.2361945
1403715524577140000,-0.0006981317,0.020943951,0.0774926188,9.2509398333,0.2941995,-3.1953334583
1403715524582140000,0,0.0202458193,0.0733038286,9.2999730833,0.3105439167,-3.211677875
1403715524587140000,-0.0006981317,0.0223402144,0.0795870139,9.3163175,0.2778550833,-3.2198500833
1403715524592140000,-0.0027925268,0.013962634,0.0760963554,9.3326619167,0.34323275,-3.2280222917
1403715524597140000,0.0013962634,0.0216420827,0.0795870139,9.2999730833,0.3023717083,-3.2198500833
1403715524602140000,-0.0013962634,0.0202458193,0.0809832773,9.3244897083,0.2860272917,-3.2361945
1403715524607140000,-0.0027925268,0.0216420827,0.0774926188,9.242767625,0.318716125,-3.18716125
1403715524612140000,-0.0041887902,0.020943951,0.074700092,9.3326619167,0.3350605417,-3.2443667083
1403715524617140000,-0.0020943951,0.0230383461,0.0809832773,9.2509398333,0.3105439167,-3.2198500833
1403715524622140000,-0.0020943951,0.0251327412,0.0774926188,9.2836286667,0.34323275,-3.2443667083
1403715524627140000,-0.0013962634,0.0188495559,0.0802851456,9.2591120417,0.2941995,-3.2035056667
1403715524632140000,0,0.0188495559,0.0753982237,9.3326619167,0.3268883333,-3.2280222917
1403715524637140000,-0.0020943951,0.0216420827,0.0788888822,9.218251,0.2778550833,-3.1789890417
1403715524642140000,-0.0034906585,0.0174532925,0.0774926188,9.291800875,0.3268883333,-3.1953334583
1403715524647140000,-0.0006981317,0.020943951,0.081681409,9.2345954167,0.2533384583,-3.1789890417
1403715524652140000,0,0.0181514242,0.0788888822,9.2999730833,0.3350605417,-3.2198500833
1403715524657140000,-0.0006981317,0.0195476876,0.081681409,9.2345954167,0.3350605417,-3.162644625
1403715524662140000,-0.0027925268,0.0188495559,0.0767944871,9.2591120417,0.3023717083,-3.2198500833
1403715524667140000,-0.0020943951,0.020943951,0.0802851456,9.2591120417,0.34323275,-3.1708168333
1403715524672140000,-0.0020943951,0.0202458193,0.0809832773,9.2509398333,0.3268883333,-3.18716125
1403715524677140000,0,0.0195476876,0.0774926188,9.291800875,0.318716125,-3.1544724167
1403715524682140000,-0.0013962634,0.0230383461,0.0774926188,9.2836286667,0.2778550833,-3.211677875
1403715524687140000,-0.0020943951,0.0195476876,0.0774926188,9.2264232083,0.2941995,-3.162644625
1403715524692140000,-0.0027925268,0.020943951,0.0774926188,9.2999730833,0.318716125,-3.2198500833
1403715524697140000,-0.0041887902,0.0174532925,0.0767944871,9.2591120417,0.3268883333,-3.1708168333
1403715524702140000,-0.0041887902,0.0181514242,0.0740019603,9.242767625,0.2941995,-3.2198500833
1403715524707140000,0,0.0125663706,0.0760963554,9.291800875,0.3350605417,-3.162644625
1403715524712140000,-0.0034906585,0.0188495559,0.0726056969,9.26728425,0.269682875,-3.1953334583
1403715524717140000,-0.0027925268,0.0160570291,0.0767944871,9.2754564583,0.318716125,-3.2035056667
1403715524722140000,-0.0034906585,0.0202458193,0.0802851456,9.218251,0.3023717083,-3.1953334583
1403715524727140000,-0.0048869219,0.0181514242,0.0767944871,9.2264232083,0.3350605417,-3.211677875
1403715524732140000,-0.0013962634,0.0223402144,0.0760963554,9.2509398333,0.2941995,-3.1953334583
1403715524737140000,0.0006981317,0.0153588974,0.0788888822,9.3081452917,0.3759215833,-3.1789890417
1403715524742140000,-0.0041887902,0.0237364778,0.0795870139,9.26728425,0.2941995,-3.2280222917
1403715524747140000,-0.0013962634,0.0195476876,0.0767944871,9.2836286667,0.3350605417,-3.1953334583
1403715524752140000,-0.0006981317,0.020943951,0.0795870139,9.218251,0.2860272917,-3.1789890417
1403715524757140000,-0.0034906585,0.0181514242,0.0753982237,9.3081452917,0.318716125,-3.162644625
1403715524762140000,-0.0020943951,0.0181514242,0.0767944871,9.2509398333,0.2860272917,-3.1463002083
1403715524767140000,-0.006981317,0.0237364778,0.0760963554,9.242767625,0.3268883333,-3.2280222917
1403715524772140000,-0.006981317,0.0251327412,0.0774926188,9.2264232083,0.34323275,-3.1299557917
1403715524777140000,-0.0027925268,0.0195476876,0.0691150384,9.3571785417,0.269682875,-3.2770555417
1403715524782140000,-0.0097738438,0.0132645023,0.0802851456,9.0302902083,0.6210878333,-3.1217835833
1403715524787140000,-0.0216420827,0.0167551608,0.0837758041,9.4552450417,0.563882375,-3.309744375
1403715524792140000,-0.027925268,0.0244346095,0.0865683309,9.2264232083,0.220649625,-3.162644625
1403715524797140000,-0.013962634,0.0104719755,0.0879645943,9.2836286667,-0.0980665,-3.1299557917
1403715524802140000,0.0188495559,0.0363028484,0.0691150384,9.389867375,-0.6210878333,-3.08909475
1403715524807140000,0.0558505361,0.0118682389,0.0719075652,9.0057735833,-0.0817220833,-3.064578125
1403715524812140000,0.0614355897,0.0237364778,0.0439822972,9.6023447917,0.1879607917,-3.3260887917
1403715524817140000,0.0376991118,0.0293215314,0.0523598776,8.7687795417,1.397447625,-3.0564059167
1403715524822140000,-0.0195476876,0.0013962634,0.081681409,9.389867375,1.789713625,-3.505877375
1403715524827140000,-0.0872664626,0.027925268,0.095644043,9.046634625,1.1195925417,-3.1953334583
1403715524832140000,-0.109606677,0.0118682389,0.1110029404,9.2264232083,0.0898942917,-3.2198500833
1403715524837140000,-0.0712094335,0.0181514242,0.1061160185,9.389867375,-1.201314625,-2.9828560417
1403715524842140000,0.0020943951,0.027925268,0.0865683309,9.2999730833,-1.1441091667,-3.0809225417
1403715524847140000,0.0642281165,0.0097738438,0.081681409,9.2345954167,-0.5720545833,-2.966511625
1403715524852140000,0.0830776724,0.0167551608,0.0572467995,9.536967125,0.122583125,-3.3015721667
1403715524857140000,0.0767944871,0.0432841654,0.0740019603,9.095667875,0.93163175,-3.2198500833
1403715524862140000,0.0376991118,0.0160570291,0.0753982237,9.1120122917,1.0460426667,-3.260711125
1403715524867140000,0.0041887902,0.0363028484,0.0872664626,9.6186892083,1.12776475,-3.4486719167
1403715524872140000,-0.0328121899,0.0307177948,0.0921533845,8.629852,0.8172208333,-3.0564059167
1403715524877140000,-0.046774824,0.0104719755,0.0942477796,9.978266375,0.5475379583,-3.4731885417
1403715524882140000,-0.0600393263,0.0551524044,0.0872664626,8.5481299167,0.2288218333,-2.8357562917
1403715524887140000,-0.0446804289,-0.0062831853,0.0844739358,9.5696559583,-0.0898942917,-3.4159830833
1403715524892140000,-0.0167551608,0.0558505361,0.0698131701,9.4307284167,-0.514849125,-2.99102825
1403715524897140000,0.0202458193,0.0041887902,0.074700092,8.752435125,-0.3759215833,-3.0564059167
1403715524902140000,0.0495673508,0.0265290046,0.0600393263,9.7249279167,-0.2124774167,-3.260711125
1403715524907140000,0.0579449312,0.0251327412,0.0670206433,8.9322237083,0.4249548333,-3.0727503333
1403715524912140000,0.0439822972,0.0118682389,0.0635299848,9.3244897083,0.8907707083,-3.407810875
1403715524917140000,0.0111701072,0.0356047167,0.0698131701,9.3244897083,0.8499096667,-3.162644625
1403715524922140000,-0.0160570291,0.0300196631,0.0788888822,9.1773899583,1.0623870833,-3.334261
1403715524927140000,-0.0439822972,0.0258308729,0.0872664626,9.1610455417,0.4903325,-3.113611375
1403715524932140000,-0.0509636142,0.0321140582,0.0949459113,9.218251,0.2860272917,-3.18716125
1403715524937140000,-0.041887902,0.0160570291,0.0970403064,8.9567403333,-0.1144109167,-3.0237170833
1403715524942140000,-0.0132645023,0.0111701072,0.0963421747,9.389867375,-0.367749375,-3.1708168333
1403715524947140000,0.013962634,0.0216420827,0.0733038286,9.242767625,-0.2369940417,-3.1299557917
1403715524952140000,0.0363028484,0.0020943951,0.0719075652,9.2100787917,-0.073549875,-3.1463002083
1403715524957140000,0.0446804289,0.0251327412,0.0642281165,9.6023447917,0.3268883333,-3.2443667083
1403715524962140000,0.0370009801,0.0237364778,0.0712094335,9.0793234583,0.6456044583,-3.2035056667
1403715524967140000,0.0195476876,0.0230383461,0.0767944871,9.438900625,0.8662540833,-3.3260887917
1403715524972140000,-0.0083775804,0.0300196631,0.088662726,9.16921775,0.8253930417,-3.1463002083
1403715524977140000,-0.0321140582,0.0153588974,0.0865683309,9.1283567083,0.6864655,-3.2361945
1403715524982140000,-0.0425860337,0.0181514242,0.0823795407,9.3490063333,0.2778550833,-3.18716125
1403715524987140000,-0.0383972435,0.0181514242,0.0733038286,9.3163175,-0.196133,-3.2443667083
1403715524992140000,-0.0076794487,0.020943951,0.0670206433,9.3244897083,-0.34323275,-3.2361945
1403715524997140000,0.0342084533,0.0293215314,0.0733038286,9.3735229583,-0.0980665,-3.1789890417
1403715525002140000,0.041887902,0.0356047167,0.0837758041,9.144701125,0.53936575,-3.1953334583
1403715525007140000,0.0146607657,0.0265290046,0.0879645943,9.1855621667,1.2176590417,-3.18716125
1403715525012140000,-0.0307177948,0.0167551608,0.1054178868,9.0384624167,1.1931424167,-3.138128
1403715525017140000,-0.0767944871,0.0146607657,0.0802851456,9.1610455417,0.784532,-3.3506054167
1403715525022140000,-0.0698131701,0.0090757121,0.0879645943,9.46341725,-0.196133,-3.1789890417
1403715525027140000,-0.0370009801,0.0307177948,0.0753982237,9.242767625,-0.8172208333,-3.0809225417
1403715525032140000,0.0363028484,0.0174532925,0.0565486678,9.36535075,-1.2176590417,-3.18716125
1403715525037140000,0.1012290966,0.0390953752,0.0712094335,9.3816951667,-0.1389275417,-2.941995
1403715525042140000,0.1061160185,0.0265290046,0.0635299848,8.9403959167,1.0623870833,-3.138128
1403715525047140000,0.0628318531,0,0.0628318531,9.0793234583,1.740680375,-3.2525389167
1403715525052140000,-0.0202458193,0.0083775804,0.0712094335,9.2999730833,1.5854084167,-3.38329425
1403715525057140000,-0.0670206433,0.0083775804,0.0795870139,9.340834125,0.8172208333,-3.3506054167
1403715525062140000,-0.074700092,0.0153588974,0.0935496479,9.2591120417,0.4331270417,-3.3260887917
1403715525067140000,-0.0635299848,0.0272271363,0.0921533845,9.36535075,-0.1389275417,-3.1299557917
1403715525072140000,-0.0342084533,0.0174532925,0.0977384381,9.0548068333,-0.4494714583,-3.0073726667
1403715525077140000,-0.0055850536,0.0132645023,0.0781907505,9.1610455417,-0.3105439167,-3.1953334583
1403715525082140000,0.0321140582,0.0090757121,0.0872664626,9.36535075,-0.2860272917,-2.99102825
1403715525087140000,0.0481710874,0.013962634,0.0740019603,9.3816951667,-0.2124774167,-3.2443667083
1403715525092140000,0.0614355897,0.013962634,0.0656243799,9.5206227083,0.4576436667,-3.3506054167
1403715525097140000,0.0551524044,0.0342084533,0.0928515162,9.218251,0.8008764167,-3.138128
1403715525102140000,0.0090757121,0.0195476876,0.0893608577,9.2019065833,1.348414375,-3.3506054167
1403715525107140000,-0.0321140582,0.0244346095,0.0893608577,9.4470728333,0.9970094167,-3.1544724167
1403715525112140000,-0.0614355897,0.0342084533,0.0970403064,8.7606073333,0.7028099167,-2.9828560417
1403715525117140000,-0.0684169067,0.0013962634,0.0830776724,9.2836286667,0.1307553333,-3.2280222917
1403715525122140000,-0.0425860337,0.0181514242,0.081681409,9.487933875,-0.367749375,-3.18716125
1403715525127140000,-0.0090757121,0.0265290046,0.0698131701,9.26728425,-0.318716125,-3.2280222917
1403715525132140000,0.0265290046,0.0251327412,0.0635299848,9.2591120417,-0.3595771667,-3.1544724167
1403715525137140000,0.0446804289,0.0383972435,0.0719075652,9.340834125,0.0898942917,-3.1299557917
1403715525142140000,0.0460766923,0.0251327412,0.0621337214,9.022118,0.5311935417,-3.18716125
1403715525147140000,0.0356047167,0.0041887902,0.0670206433,9.3735229583,0.6946377083,-3.1789890417
1403715525152140000,0.0104719755,0.0188495559,0.0705113018,9.0302902083,0.8253930417,-3.2035056667
1403715525157140000,-0.0223402144,0.0048869219,0.0740019603,9.3326619167,0.83356525,-3.2933999583
1403715525162140000,-0.0411897703,0.0223402144,0.0844739358,9.4715894583,0.4985047083,-3.334261
1403715525167140000,-0.053756141,0.0265290046,0.0865683309,9.1773899583,0.2941995,-3.18716125
1403715525172140000,-0.0370009801,0.027925268,0.0949459113,9.1365289167,-0.04903325,-3.0809225417
1403715525177140000,-0.013962634,0.0188495559,0.0900589894,9.2509398333,-0.4331270417,-3.0564059167
1403715525182140000,0.0146607657,0.0160570291,0.0830776724,9.0793234583,-0.2615106667,-3.113611375
1403715525187140000,0.0328121899,0.0111701072,0.088662726,9.3980395833,0.1552719583,-3.2525389167
1403715525192140000,0.0335103216,0.013962634,0.0830776724,9.3326619167,0.4494714583,-3.2198500833
1403715525197140000,0.0146607657,0.0223402144,0.0795870139,9.3490063333,0.8253930417,-3.2443667083
1403715525202140000,-0.0104719755,0.0174532925,0.0907571211,9.4552450417,0.6456044583,-3.1953334583
1403715525207140000,-0.0237364778,0.0188495559,0.088662726,9.1120122917,0.0980665,-3.0972669583
1403715525212140000,-0.0020943951,0.0132645023,0.0879645943,9.2100787917,-0.2778550833,-3.0809225417
1403715525217140000,0.0335103216,0.0111701072,0.0719075652,9.4062117917,-0.392266,-3.2770555417
1403715525222140000,0.0474729557,0.0244346095,0.0635299848,9.3081452917,0.24516625,-3.1054391667
1403715525227140000,0.0363028484,0.0181514242,0.0572467995,9.3490063333,0.9398039583,-3.4404997083
1403715525232140000,-0.0027925268,0.0307177948,0.0635299848,9.3163175,1.495514125,-3.3506054167
1403715525237140000,-0.0621337214,0.0321140582,0.0837758041,9.0793234583,1.3811032083,-3.2688833333
1403715525242140000,-0.1019272283,0.0174532925,0.0865683309,9.0629790417,0.7518431667,-3.1054391667
1403715525247140000,-0.0921533845,0.0202458193,0.1110029404,9.0629790417,-0.3268883333,-2.9746838333
1403715525252140000,-0.0502654825,0.0048869219,0.0900589894,9.2999730833,-1.0869037083,-3.2525389167
1403715525257140000,0.0223402144,0.0174532925,0.0900589894,9.4797616667,-0.8825985,-2.8847895417
1403715525262140000,0.0628318531,0.0202458193,0.0663225116,9.36535075,-0.0898942917,-3.3179165833
1403715525267140000,0.0774926188,0.0181514242,0.0488692191,9.1201845,0.4821602917,-3.0972669583
1403715525272140000,0.0621337214,0.0307177948,0.074700092,9.340834125,1.0787315,-3.2198500833
1403715525277140000,0.0174532925,0.0216420827,0.0705113018,9.2509398333,0.9643205833,-3.2035056667
1403715525282140000,-0.0160570291,0.027925268,0.0942477796,9.0302902083,1.1931424167,-3.1953334583
1403715525287140000,-0.0530580093,0.0055850536,0.0907571211,9.0793234583,0.661948875,-3.0809225417
1403715525292140000,-0.0565486678,0.0118682389,0.1068141502,9.2019065833,0.465815875,-3.1054391667
1403715525297140000,-0.0614355897,-0.0048869219,0.0719075652,9.5124505,-0.2043052083,-3.2361945
1403715525302140000,-0.0293215314,0.0090757121,0.0802851456,9.193734375,-0.0653776667,-3.0809225417
1403715525307140000,0,0.0083775804,0.0656243799,9.36535075,-0.63743225,-3.08909475
1403715525312140000,0.034906585,0.0083775804,0.0642281165,9.5042782917,-0.1552719583,-3.2933999583
1403715525317140000,0.0621337214,0.0216420827,0.0698131701,9.2509398333,0.0980665,-3.08909475
1403715525322140000,0.0551524044,0.0118682389,0.0740019603,9.193734375,0.7028099167,-3.18716125
1403715525327140000,0.0286233997,0.0027925268,0.0760963554,8.9567403333,1.0705592917,-3.2198500833
1403715525332140000,-0.0181514242,0,0.074700092,9.536967125,0.9724927917,-3.3179165833
1403715525337140000,-0.0425860337,0.020943951,0.0809832773,9.3081452917,0.7927042083,-3.407810875
1403715525342140000,-0.0558505361,0.0062831853,0.081681409,9.0874956667,0.392266,-3.1953334583
1403715525347140000,-0.0439822972,0.0251327412,0.0921533845,9.5451393333,0.0326888333,-3.3751220417
1403715525352140000,-0.0230383461,0.0293215314,0.0865683309,9.0384624167,-0.2369940417,-3.1217835833
1403715525357140000,0.0034906585,0.0195476876,0.0837758041,9.1855621667,-0.2124774167,-3.1708168333
1403715525362140000,0.0237364778,0.0293215314,0.0712094335,9.0874956667,-0.0081722083,-3.08909475
1403715525367140000,0.0397935069,0.0041887902,0.0788888822,9.1528733333,0.2043052083,-3.1708168333
1403715525372140000,0.0293215314,0.0174532925,0.0628318531,9.5287949167,0.4249548333,-3.3015721667
1403715525377140000,0.0230383461,0.0237364778,0.0733038286,9.1283567083,0.6864655,-3.2035056667
1403715525382140000,0.0041887902,0.0195476876,0.0740019603,9.4470728333,0.7763597917,-3.3179165833
1403715525387140000,-0.0181514242,0.0300196631,0.0719075652,9.3326619167,0.7191543333,-3.28522775
1403715525392140000,-0.0293215314,0.0293215314,0.0837758041,9.1365289167,0.416782625,-3.1544724167
1403715525397140000,-0.0188495559,0.0174532925,0.0907571211,9.1201845,-0.0163444167,-3.0073726667
1403715525402140000,-0.0076794487,0.0097738438,0.0823795407,9.0139457917,0.0653776667,-2.99102825
1403715525407140000,-0.0111701072,-0.0076794487,0.0753982237,9.2591120417,0.4821602917,-3.309744375
1403715525412140000,-0.0216420827,0.0111701072,0.0753982237,9.414384,0.6537766667,-3.4486719167
1403715525417140000,-0.0363028484,0.0118682389,0.0712094335,9.2345954167,0.24516625,-3.2688833333
1403715525422140000,-0.0265290046,0.0321140582,0.088662726,9.3571785417,-0.171616375,-3.28522775
1403715525427140000,0.0111701072,0.0223402144,0.0774926188,9.2019065833,-0.661948875,-2.9011339583
1403715525432140000,0.060737458,0.0216420827,0.0809832773,9.1201845,-0.588399,-2.9338227917
1403715525437140000,0.0970403064,0.0118682389,0.067718775,9.2100787917,-0.0572054583,-3.064578125
1403715525442140000,0.0844739358,-0.0062831853,0.0600393263,9.0793234583,1.176798,-3.2361945
1403715525447140000,0.0237364778,0.0083775804,0.0642281165,9.3816951667,1.887780125,-3.4486719167
1403715525452140000,-0.0474729557,0.0104719755,0.0719075652,9.291800875,1.495514125,-3.407810875
1403715525457140000,-0.0858701992,0.0195476876,0.081681409,9.438900625,0.7436709583,-3.309744375
1403715525462140000,-0.0844739358,0.020943951,0.095644043,9.0057735833,0,-3.113611375
1403715525467140000,-0.0656243799,0.0202458193,0.0788888822,9.3244897083,-0.5066769167,-3.0482337083
1403715525472140000,-0.0132645023,0.0118682389,0.0907571211,9.3081452917,-0.4576436667,-2.9828560417
1403715525477140000,0.020943951,0.0146607657,0.0600393263,9.3980395833,-0.465815875,-3.2280222917
1403715525482140000,0.0516617459,0.0160570291,0.0558505361,9.1038400833,0.1797885833,-3.0809225417
1403715525487140000,0.0579449312,0.0167551608,0.0649262482,9.4307284167,0.2778550833,-3.38329425
1403715525492140000,0.041887902,0.0293215314,0.0551524044,9.3081452917,0.5557101667,-3.2035056667
1403715525497140000,0.0202458193,0.0202458193,0.0684169067,9.0384624167,1.103248125,-3.2443667083
1403715525502140000,-0.0125663706,0.0181514242,0.0781907505,9.242767625,1.2666922917,-3.334261
1403715525507140000,-0.0495673508,0.0321140582,0.0921533845,9.2100787917,0.7927042083,-3.1953334583
1403715525512140000,-0.067718775,0.0188495559,0.0921533845,9.2836286667,0.4494714583,-3.18716125
1403715525517140000,-0.060737458,0.0181514242,0.0865683309,9.1201845,-0.1389275417,-3.0809225417
1403715525522140000,-0.0293215314,0.0118682389,0.0893608577,9.0793234583,-0.5066769167,-3.113611375
1403715525527140000,0.0132645023,0.0055850536,0.0844739358,9.414384,-0.44129925,-3.138128
1403715525532140000,0.0439822972,0.013962634,0.0572467995,9.3244897083,-0.04903325,-3.2443667083
1403715525537140000,0.0565486678,0.0174532925,0.0705113018,9.3081452917,0.465815875,-3.3015721667
1403715525542140000,0.0404916386,0.0251327412,0.0670206433,9.4715894583,0.7763597917,-3.309744375
1403715525547140000,0.0167551608,0.0300196631,0.0788888822,9.1528733333,1.0215260417,-3.260711125
1403715525552140000,-0.0202458193,0.0167551608,0.081681409,9.0139457917,0.907115125,-3.138128
1403715525557140000,-0.0383972435,0.0153588974,0.0914552528,9.2345954167,0.6537766667,-3.2035056667
1403715525562140000,-0.0439822972,0.0118682389,0.0963421747,9.1773899583,0.1634441667,-3.18716125
1403715525567140000,-0.034906585,0.0076794487,0.0760963554,9.389867375,-0.0408610417,-3.260711125
1403715525572140000,-0.0216420827,0.0118682389,0.0649262482,9.291800875,-0.1062387083,-3.1789890417
1403715525577140000,0.0006981317,0.0167551608,0.0516617459,9.26728425,-0.122583125,-3.1544724167
1403715525582140000,0.0202458193,0.0174532925,0.0642281165,9.389867375,0.171616375,-3.211677875
1403715525587140000,0.0251327412,0.0244346095,0.074700092,9.2591120417,0.4331270417,-3.1953334583
1403715525592140000,0.020943951,0.0153588974,0.0900589894,8.9403959167,0.53936575,-3.0237170833
1403715525597140000,0.0034906585,0.0076794487,0.0844739358,9.2264232083,0.760015375,-3.2198500833
1403715525602140000,-0.0181514242,0.0083775804,0.0879645943,9.5287949167,0.7927042083,-3.4159830833
1403715525607140000,-0.0474729557,0.0188495559,0.0705113018,9.2345954167,0.63743225,-3.2443667083
1403715525612140000,-0.0516617459,0.0202458193,0.0593411946,9.3980395833,-0.0326888333,-3.2361945
1403715525617140000,-0.020943951,0.0223402144,0.0642281165,9.1201845,-0.661948875,-3.1708168333
1403715525622140000,0.0293215314,0.0265290046,0.0691150384,9.144701125,-0.5475379583,-3.0237170833
1403715525627140000,0.0740019603,0.0153588974,0.0809832773,9.2264232083,-0.14709975,-3.138128
1403715525632140000,0.0753982237,0.0202458193,0.0809832773,9.07115125,0.83356525,-3.309744375
1403715525637140000,0.0376991118,0.013962634,0.0781907505,9.1528733333,1.5118585417,-3.3260887917
1403715525642140000,-0.0390953752,0.0076794487,0.0907571211,9.5124505,1.789713625,-3.530394
1403715525647140000,-0.1047197551,0.0188495559,0.0893608577,9.144701125,1.0705592917,-3.334261
1403715525652140000,-0.1221730476,0.0216420827,0.0893608577,9.3326619167,0.0817220833,-3.2035056667
1403715525657140000,-0.0753982237,0.0153588974,0.1019272283,9.242767625,-0.956148375,-3.1054391667
1403715525662140000,-0.0083775804,0.0321140582,0.0851720675,9.1201845,-1.2830367083,-2.8439285
1403715525667140000,0.0614355897,0.0090757121,0.0802851456,9.3980395833,-0.6210878333,-3.1463002083
1403715525672140000,0.0851720675,0.0188495559,0.0551524044,9.3163175,0.1389275417,-3.2688833333
1403715525677140000,0.0740019603,0.0363028484,0.0502654825,9.3980395833,0.784532,-3.3260887917
1403715525682140000,0.0446804289,0.0244346095,0.0544542727,9.0629790417,1.2912089167,-3.2035056667
1403715525687140000,-0.0055850536,0.027925268,0.0579449312,9.1528733333,1.1931424167,-3.3015721667
1403715525692140000,-0.0383972435,0.0244346095,0.0823795407,9.2264232083,0.9234595417,-3.2525389167
1403715525697140000,-0.0614355897,0.0118682389,0.0809832773,9.3490063333,0.3595771667,-3.3015721667
1403715525702140000,-0.0586430629,0.0258308729,0.0788888822,9.1365289167,0.2124774167,-3.1463002083
1403715525707140000,-0.046774824,0.013962634,0.0726056969,9.4715894583,-0.1634441667,-3.3179165833
1403715525712140000,-0.0202458193,0.0223402144,0.0621337214,9.1283567083,-0.416782625,-2.99102825
1403715525717140000,0.0216420827,0.0265290046,0.0614355897,9.26728425,-0.4985047083,-3.1217835833
1403715525722140000,0.0488692191,0.0146607657,0.0670206433,9.242767625,-0.1634441667,-3.1544724167
1403715525727140000,0.0600393263,0.0216420827,0.0712094335,9.1855621667,0.3514049583,-3.113611375
1403715525732140000,0.053756141,0.0132645023,0.081681409,9.26728425,0.7518431667,-3.138128
1403715525737140000,0.0202458193,0.0111701072,0.0774926188,9.2999730833,1.005181625,-3.3914664583
1403715525742140000,-0.006981317,0.0237364778,0.0788888822,9.26728425,0.9479761667,-3.211677875
1403715525747140000,-0.0425860337,0.0237364778,0.0900589894,9.2100787917,0.6946377083,-3.211677875
1403715525752140000,-0.0586430629,0.0244346095,0.0823795407,9.1528733333,0.3350605417,-3.1217835833
1403715525757140000,-0.0425860337,0.0223402144,0.0991347015,9.3735229583,-0.2043052083,-3.1054391667
1403715525762140000,-0.0111701072,0.0272271363,0.0977384381,9.193734375,-0.392266,-3.1217835833
1403715525767140000,0.0097738438,0.013962634,0.0781907505,8.9240515,-0.1552719583,-3.0809225417
1403715525772140000,0.0328121899,0.0146607657,0.0698131701,9.487933875,0.024516625,-3.260711125
1403715525777140000,0.0411897703,0.0132645023,0.0621337214,9.3163175,0.0817220833,-3.2035056667
1403715525782140000,0.0356047167,0.0125663706,0.0509636142,9.26728425,0.6210878333,-3.3015721667
1403715525787140000,0.0146607657,0.0237364778,0.0663225116,9.3816951667,1.0133538333,-3.1708168333
1403715525792140000,-0.0132645023,0.0314159265,0.074700092,9.1283567083,0.760015375,-3.28522775
1403715525797140000,-0.0202458193,0.0174532925,0.0753982237,9.4715894583,0.0653776667,-3.113611375
1403715525802140000,-0.0146607657,0.0335103216,0.0830776724,9.1610455417,0.1879607917,-3.1953334583
1403715525807140000,-0.0188495559,0.0160570291,0.0621337214,9.07115125,0.3268883333,-3.1789890417
1403715525812140000,-0.0195476876,0.0104719755,0.067718775,9.4470728333,0.4821602917,-3.2933999583
1403715525817140000,-0.0328121899,0.0314159265,0.0719075652,9.1120122917,0.7028099167,-3.3015721667
1403715525822140000,-0.0460766923,0.0062831853,0.0844739358,9.193734375,0.2533384583,-3.0972669583
1403715525827140000,-0.0376991118,0.0237364778,0.0907571211,9.3816951667,-0.0653776667,-3.3015721667
1403715525832140000,0.0020943951,0.0160570291,0.0914552528,8.97308475,-0.8172208333,-2.89296175
1403715525837140000,0.053756141,0.0006981317,0.067718775,9.610517,-1.02969825,-3.2525389167
1403715525842140000,0.0998328332,0.0328121899,0.0635299848,9.340834125,-0.0163444167,-3.1789890417
1403715525847140000,0.0928515162,0.0153588974,0.0502654825,9.2591120417,1.397447625,-3.38329425
1403715525852140000,0.041887902,0.0370009801,0.0551524044,9.3326619167,1.81423025,-3.211677875
1403715525857140000,-0.046774824,0.0160570291,0.0893608577,8.7442629167,1.7570247917,-3.2361945
1403715525862140000,-0.0991347015,0.0174532925,0.067718775,9.6268614167,0.63743225,-3.3506054167
1403715525867140000,-0.0879645943,0.0188495559,0.1068141502,8.8668460417,-0.0898942917,-3.1217835833
1403715525872140000,-0.0635299848,0.013962634,0.0705113018,9.6186892083,-0.6537766667,-3.2443667083
1403715525877140000,-0.0034906585,0.0300196631,0.0900589894,9.4470728333,-0.5557101667,-3.2525389167
1403715525882140000,0.0195476876,0.0272271363,0.0551524044,9.1855621667,-0.1634441667,-3.1789890417
1403715525887140000,0.0495673508,0.0307177948,0.0705113018,9.610517,0.024516625,-3.358777625
1403715525892140000,0.0502654825,0.0390953752,0.0635299848,8.948568125,0.24516625,-3.113611375
1403715525897140000,0.041887902,0.0286233997,0.0740019603,9.0874956667,0.8989429167,-3.1544724167
1403715525902140000,0.0160570291,0.0202458193,0.081681409,9.3980395833,0.809048625,-3.2361945
1403715525907140000,-0.0104719755,0.0293215314,0.088662726,9.07115125,0.858081875,-3.3996386667
1403715525912140000,-0.0411897703,0.0293215314,0.0802851456,9.3571785417,0.760015375,-3.2525389167
1403715525917140000,-0.0586430629,0.034906585,0.0809832773,9.2509398333,0.63743225,-3.2035056667
1403715525922140000,-0.0565486678,0.0307177948,0.0809832773,8.9649125417,-0.073549875,-3.08909475
1403715525927140000,-0.0230383461,0.0286233997,0.0907571211,9.5287949167,-0.3759215833,-3.2280222917
1403715525932140000,0.006981317,0.0432841654,0.0865683309,9.0629790417,-0.5311935417,-2.9992004583
1403715525937140000,0.0321140582,0.0202458193,0.0788888822,9.046634625,0.0980665,-3.0237170833
1403715525942140000,0.0411897703,0.0160570291,0.074700092,9.3081452917,0.2043052083,-3.0727503333
1403715525947140000,0.027925268,0.0160570291,0.0593411946,9.144701125,0.612915625,-3.3015721667
1403715525952140000,0.0132645023,0.0055850536,0.0579449312,9.4062117917,0.7681875833,-3.2688833333
1403715525957140000,-0.006981317,0.0251327412,0.0691150384,9.2100787917,0.8662540833,-3.2198500833
1403715525962140000,-0.0300196631,0.0202458193,0.0788888822,9.07115125,0.4086104167,-3.0809225417
1403715525967140000,-0.0321140582,0.0195476876,0.0921533845,9.26728425,0.2860272917,-3.2198500833
1403715525972140000,-0.0300196631,0.0328121899,0.0991347015,9.3735229583,0.1797885833,-3.1463002083
1403715525977140000,-0.0244346095,0.0160570291,0.0914552528,8.997601375,0.1307553333,-3.1299557917
1403715525982140000,-0.0181514242,0.006981317,0.0774926188,9.4470728333,-0.0163444167,-3.2035056667
1403715525987140000,0.0013962634,0.0181514242,0.060737458,9.16921775,-0.269682875,-3.1544724167
1403715525992140000,0.027925268,0.0153588974,0.0614355897,9.414384,-0.024516625,-3.2688833333
1403715525997140000,0.0376991118,0.0188495559,0.0712094335,9.1120122917,0.3840937917,-3.0318892917
1403715526002140000,0.0237364778,0.0174532925,0.0635299848,9.4225562083,0.5066769167,-3.3996386667
1403715526007140000,0.0188495559,0.0244346095,0.0781907505,9.36535075,0.6701210833,-3.2688833333
1403715526012140000,0.0013962634,0.0314159265,0.0879645943,9.438900625,0.8744262917,-3.309744375
1403715526017140000,-0.0370009801,0.0356047167,0.0837758041,8.87501825,0.8417374583,-3.0809225417
1403715526022140000,-0.0572467995,0.0111701072,0.0781907505,9.2345954167,0.3268883333,-3.1544724167
1403715526027140000,-0.0356047167,0.0230383461,0.0802851456,9.438900625,-0.1634441667,-3.1789890417
1403715526032140000,-0.0048869219,0.0195476876,0.0865683309,8.948568125,-0.220649625,-3.1299557917
1403715526037140000,0.0160570291,0.0111701072,0.0781907505,9.36535075,0.024516625,-3.08909475
1403715526042140000,0.0230383461,0.0216420827,0.0691150384,9.3980395833,0.1552719583,-3.2688833333
1403715526047140000,0.0314159265,0.0321140582,0.0691150384,9.414384,0.3595771667,-3.309744375
1403715526052140000,0.0251327412,0.0342084533,0.0774926188,9.2999730833,0.53936575,-3.260711125
1403715526057140000,0,0.0321140582,0.0642281165,9.0139457917,0.8662540833,-3.0318892917
1403715526062140000,-0.0125663706,0.0132645023,0.0865683309,9.0384624167,0.6047434167,-3.138128
1403715526067140000,-0.0160570291,0.0160570291,0.0837758041,9.4552450417,0.2124774167,-3.2198500833
1403715526072140000,-0.0167551608,0.0083775804,0.0907571211,8.997601375,0.367749375,-3.2443667083
1403715526077140000,-0.0223402144,0.0062831853,0.0712094335,9.3816951667,0.2615106667,-3.2525389167
1403715526082140000,-0.0118682389,0.0223402144,0.0837758041,9.2509398333,0.3023717083,-3.18716125
1403715526087140000,-0.006981317,0.0146607657,0.0642281165,9.1773899583,-0.0898942917,-3.0809225417
1403715526092140000,0.0125663706,0.013962634,0.0698131701,9.4797616667,0.0898942917,-3.2035056667
1403715526097140000,0.0188495559,0.0216420827,0.0670206433,9.1283567083,0.122583125,-3.1217835833
1403715526102140000,0.0293215314,0.0146607657,0.0872664626,9.1120122917,0.4985047083,-3.211677875
1403715526107140000,0.0195476876,0.020943951,0.088662726,9.414384,0.4903325,-3.3015721667
1403715526112140000,-0.0020943951,0.0258308729,0.0844739358,9.1855621667,0.83356525,-3.2280222917
1403715526117140000,-0.0216420827,0.0174532925,0.0802851456,9.3081452917,0.4494714583,-3.260711125
1403715526122140000,-0.0286233997,0.0216420827,0.0621337214,9.095667875,0.2941995,-3.1789890417
1403715526127140000,-0.0251327412,0.0048869219,0.0663225116,9.0139457917,-0.1144109167,-3.138128
1403715526132140000,-0.0090757121,0.0167551608,0.0740019603,9.5124505,0.024516625,-3.3506054167
1403715526137140000,0.0062831853,0.0293215314,0.0851720675,9.340834125,-0.04903325,-3.18716125
1403715526142140000,0.0167551608,0.0230383461,0.081681409,9.0629790417,0.367749375,-3.18716125
1403715526147140000,0.0181514242,0.0265290046,0.0837758041,9.3980395833,0.4576436667,-3.211677875
1403715526152140000,0.0097738438,0.0356047167,0.0781907505,9.4225562083,0.4249548333,-3.1953334583
1403715526157140000,0.0034906585,0.0265290046,0.0719075652,9.0629790417,0.44129925,-3.0809225417
1403715526162140000,-0.006981317,0.0118682389,0.0719075652,9.0057735833,0.367749375,-3.113611375
1403715526167140000,-0.0132645023,0.0111701072,0.0774926188,9.3735229583,0.4903325,-3.3424332083
1403715526172140000,-0.0146607657,0.0160570291,0.0900589894,9.3490063333,0.318716125,-3.3015721667
1403715526177140000,-0.0125663706,0.0244346095,0.0774926188,9.4797616667,0.2533384583,-3.2525389167
1403715526182140000,-0.0097738438,0.0251327412,0.0774926188,8.9649125417,0.2615106667,-3.1217835833
1403715526187140000,-0.0034906585,0.0202458193,0.0719075652,9.4552450417,0.3268883333,-3.2770555417
1403715526192140000,0.0027925268,0.034906585,0.067718775,9.16921775,0.14709975,-3.08909475
1403715526197140000,0.0055850536,0.0097738438,0.0698131701,8.9812569583,0.2288218333,-3.0972669583
1403715526202140000,0.013962634,0.0076794487,0.0788888822,9.2999730833,0.2124774167,-3.1217835833
1403715526207140000,0.0090757121,0.013962634,0.081681409,9.2591120417,0.4249548333,-3.2770555417
1403715526212140000,-0.0020943951,0.0076794487,0.0802851456,9.3326619167,0.5230213333,-3.1953334583
1403715526217140000,-0.0104719755,0.013962634,0.0733038286,9.46341725,0.367749375,-3.334261
1403715526222140000,-0.0083775804,0.0300196631,0.0823795407,9.2754564583,0.4249548333,-3.162644625
1403715526227140000,-0.0153588974,0.0223402144,0.0753982237,9.1773899583,0.2043052083,-3.211677875
1403715526232140000,-0.0097738438,0.0237364778,0.0726056969,9.2591120417,0.2369940417,-3.0727503333
1403715526237140000,0.0020943951,0.0160570291,0.0767944871,9.1528733333,-0.0817220833,-3.1953334583
1403715526242140000,0.013962634,0.0153588974,0.088662726,9.438900625,0.3268883333,-3.2525389167
1403715526247140000,0.0062831853,0.0195476876,0.0900589894,9.1283567083,0.367749375,-3.1544724167
1403715526252140000,-0.0013962634,0.0160570291,0.081681409,9.3735229583,0.5720545833,-3.2933999583
1403715526257140000,-0.0041887902,0.0202458193,0.0774926188,9.3735229583,0.2860272917,-3.260711125
1403715526262140000,-0.0062831853,0.0293215314,0.0670206433,9.438900625,0.3105439167,-3.3179165833
1403715526267140000,-0.0006981317,0.0286233997,0.0712094335,8.9894291667,0.2615106667,-3.064578125
1403715526272140000,-0.0076794487,0.0153588974,0.0656243799,9.1773899583,0.392266,-3.0809225417
1403715526277140000,-0.0013962634,0.0181514242,0.0788888822,9.291800875,0.2288218333,-3.28522775
1403715526282140000,0.0027925268,0.0244346095,0.088662726,9.2100787917,0.24516625,-3.2198500833
1403715526287140000,0,0.0202458193,0.0893608577,9.26728425,0.5066769167,-3.2198500833
1403715526292140000,-0.0118682389,0.0202458193,0.0893608577,9.1283567083,0.5230213333,-3.1463002083
1403715526297140000,-0.0188495559,0.0118682389,0.0740019603,9.3326619167,0.34323275,-3.1463002083
1403715526302140000,-0.0090757121,0.0181514242,0.0670206433,9.3163175,-0.024516625,-3.2198500833
1403715526307140000,0.0034906585,0.0146607657,0.0635299848,9.16921775,0.1389275417,-3.1463002083
1403715526312140000,0.0104719755,0.0188495559,0.0760963554,9.2100787917,0.3023717083,-3.1217835833
1403715526317140000,0.0132645023,0.0167551608,0.0740019603,9.2999730833,0.367749375,-3.2280222917
1403715526322140000,0.0104719755,0.0181514242,0.0823795407,9.3571785417,0.367749375,-3.2198500833
1403715526327140000,0,0.0223402144,0.0795870139,9.2264232083,0.6210878333,-3.3015721667
1403715526332140000,-0.0090757121,0.0216420827,0.0872664626,9.26728425,0.6292600417,-3.2035056667
1403715526337140000,-0.0293215314,0.0153588974,0.0809832773,9.242767625,0.3023717083,-3.211677875
1403715526342140000,-0.0265290046,0.013962634,0.0712094335,9.218251,-0.0163444167,-3.1544724167
1403715526347140000,-0.0013962634,0.0104719755,0.0753982237,9.2019065833,-0.196133,-3.162644625
1403715526352140000,0.020943951,0.0216420827,0.0781907505,9.36535075,0.0653776667,-3.2770555417
1403715526357140000,0.0265290046,0.0153588974,0.0774926188,9.193734375,0.3023717083,-3.1953334583
1403715526362140000,0.0216420827,0.0258308729,0.0705113018,9.3571785417,0.5475379583,-3.4159830833
1403715526367140000,0.0083775804,0.0244346095,0.0774926188,9.2509398333,0.612915625,-3.162644625
1403715526372140000,-0.006981317,0.0328121899,0.0781907505,9.3163175,0.661948875,-3.358777625
1403715526377140000,-0.0258308729,0.0321140582,0.0865683309,9.022118,0.4903325,-3.0400615
1403715526382140000,-0.0335103216,0.0153588974,0.074700092,9.2264232083,0.1797885833,-3.28522775
1403715526387140000,-0.0195476876,0.0174532925,0.0809832773,9.16921775,-0.0572054583,-3.0400615
1403715526392140000,0,0.0118682389,0.0823795407,9.3735229583,-0.1389275417,-3.3424332083
1403715526397140000,0.0202458193,0.0244346095,0.0726056969,9.3163175,0.0980665,-3.1299557917
1403715526402140000,0.0272271363,0.0118682389,0.0740019603,9.218251,0.3023717083,-3.309744375
1403715526407140000,0.0181514242,0.0258308729,0.0726056969,9.4552450417,0.6210878333,-3.28522775
1403715526412140000,0.0013962634,0.0314159265,0.0795870139,9.242767625,0.563882375,-3.2035056667
1403715526417140000,-0.0118682389,0.027925268,0.0733038286,9.1855621667,0.7191543333,-3.1299557917
1403715526422140000,-0.027925268,0.0167551608,0.0781907505,9.1120122917,0.3595771667,-3.0482337083
1403715526427140000,-0.0286233997,0.0083775804,0.081681409,9.1773899583,0.1552719583,-3.2280222917
1403715526432140000,-0.0104719755,0.013962634,0.0900589894,9.2754564583,-0.0572054583,-3.2280222917
1403715526437140000,0.006981317,0.013962634,0.0802851456,9.3490063333,0.0408610417,-3.2443667083
1403715526442140000,0.0181514242,0.0202458193,0.074700092,9.1201845,0.2860272917,-3.0727503333
1403715526447140000,0.0174532925,0.0090757121,0.0767944871,9.36535075,0.367749375,-3.334261
1403715526452140000,0.0090757121,0.0216420827,0.0691150384,9.5451393333,0.63743225,-3.3424332083
1403715526457140000,-0.0062831853,0.0272271363,0.067718775,9.1365289167,0.563882375,-3.2361945
1403715526462140000,-0.0132645023,0.0251327412,0.0781907505,9.2100787917,0.514849125,-3.1708168333
1403715526467140000,-0.0181514242,0.0195476876,0.0872664626,9.022118,0.2288218333,-3.015544875
1403715526472140000,-0.0111701072,0.0118682389,0.0844739358,9.3816951667,0.2043052083,-3.2933999583
1403715526477140000,-0.0027925268,0.020943951,0.0865683309,9.3163175,0.0408610417,-3.1544724167
1403715526482140000,0.0083775804,0.0174532925,0.0767944871,9.2591120417,0.1797885833,-3.260711125
1403715526487140000,0.0167551608,0.0258308729,0.0740019603,9.1773899583,0.2288218333,-3.1054391667
1403715526492140000,0.0104719755,0.0160570291,0.0705113018,9.4307284167,0.5475379583,-3.3751220417
1403715526497140000,0.0006981317,0.0286233997,0.0698131701,9.3735229583,0.563882375,-3.2525389167
1403715526502140000,-0.0111701072,0.0230383461,0.0698131701,9.193734375,0.3840937917,-3.211677875
1403715526507140000,-0.0118682389,0.027925268,0.0740019603,9.2509398333,0.269682875,-3.138128
1403715526512140000,-0.0097738438,0.0167551608,0.088662726,9.0874956667,0.220649625,-3.1789890417
1403715526517140000,-0.0048869219,0.0195476876,0.0851720675,9.340834125,0.2778550833,-3.162644625
1403715526522140000,-0.0027925268,0.0167551608,0.0830776724,9.1773899583,0.1062387083,-3.1544724167
1403715526527140000,0.0076794487,0.0181514242,0.0753982237,9.4062117917,0.14709975,-3.2933999583
1403715526532140000,0.0104719755,0.0188495559,0.0760963554,9.1201845,0.3023717083,-3.08909475
1403715526537140000,0.0055850536,0.0125663706,0.0726056969,9.414384,0.514849125,-3.358777625
1403715526542140000,-0.0055850536,0.0314159265,0.0719075652,9.1365289167,0.44129925,-3.1544724167
1403715526547140000,-0.0146607657,0.0188495559,0.0733038286,9.16921775,0.2860272917,-3.1789890417
1403715526552140000,-0.0083775804,0.0244346095,0.088662726,9.291800875,0.2860272917,-3.211677875
1403715526557140000,-0.0020943951,0.0167551608,0.088662726,9.193734375,0.1552719583,-3.2280222917
1403715526562140000,-0.0006981317,0.0272271363,0.0879645943,9.2999730833,0.3268883333,-3.1708168333
1403715526567140000,0.0013962634,0.0174532925,0.0858701992,9.07115125,0.122583125,-3.113611375
1403715526572140000,0.0076794487,0.0125663706,0.074700092,9.4552450417,0.2860272917,-3.3015721667
1403715526577140000,0.0020943951,0.0216420827,0.0733038286,9.2836286667,0.3514049583,-3.18716125
1403715526582140000,-0.0062831853,0.013962634,0.067718775,9.389867375,0.5230213333,-3.3260887917
1403715526587140000,-0.0097738438,0.0272271363,0.074700092,9.1773899583,0.3595771667,-3.1299557917
1403715526592140000,-0.0090757121,0.013962634,0.0698131701,9.16921775,0.269682875,-3.0972669583
1403715526597140000,0.0013962634,0.0202458193,0.081681409,9.3490063333,0.3350605417,-3.2933999583
1403715526602140000,-0.0006981317,0.0244346095,0.0858701992,9.1038400833,0.2369940417,-3.1789890417
1403715526607140000,0.0020943951,0.0237364778,0.0851720675,9.26728425,0.2533384583,-3.1789890417
1403715526612140000,0.0048869219,0.0153588974,0.0837758041,9.046634625,0.1634441667,-3.064578125
1403715526617140000,0.0048869219,0.0132645023,0.0712094335,9.4470728333,0.4086104167,-3.3506054167
1403715526622140000,0.0013962634,0.0272271363,0.0698131701,9.16921775,0.3514049583,-3.162644625
1403715526627140000,-0.006981317,0.013962634,0.0663225116,9.2999730833,0.5066769167,-3.2198500833
1403715526632140000,-0.0090757121,0.0216420827,0.0740019603,9.1365289167,0.2124774167,-3.162644625
1403715526637140000,-0.0055850536,0.0111701072,0.0705113018,9.36535075,0.2860272917,-3.2443667083
1403715526642140000,-0.0048869219,0.0258308729,0.0865683309,9.36535075,0.3514049583,-3.2443667083
1403715526647140000,-0.006981317,0.0216420827,0.0809832773,9.1365289167,0.2533384583,-3.1708168333
1403715526652140000,0.0027925268,0.0223402144,0.0907571211,9.2836286667,0.269682875,-3.162644625
1403715526657140000,0.0048869219,0.0167551608,0.0795870139,9.1528733333,0.24516625,-3.1789890417
1403715526662140000,0.0013962634,0.0118682389,0.0719075652,9.4062117917,0.416782625,-3.3506054167
1403715526667140000,-0.0020943951,0.0195476876,0.0740019603,9.1120122917,0.2778550833,-3.1708168333
1403715526672140000,-0.006981317,0.0146607657,0.0767944871,9.3163175,0.3840937917,-3.28522775
1403715526677140000,-0.0041887902,0.0188495559,0.0774926188,9.16921775,0.318716125,-3.1054391667
1403715526682140000,-0.0055850536,0.0174532925,0.074700092,9.414384,0.2860272917,-3.309744375
1403715526687140000,-0.0020943951,0.0230383461,0.0823795407,9.2345954167,0.2860272917,-3.260711125
1403715526692140000,0,0.0237364778,0.0781907505,9.2345954167,0.34323275,-3.1544724167
1403715526697140000,0.0048869219,0.0258308729,0.0879645943,9.242767625,0.2615106667,-3.1217835833
1403715526702140000,0.0006981317,0.0160570291,0.0767944871,9.2264232083,0.3105439167,-3.2198500833
1403715526707140000,0.0006981317,0.0188495559,0.0830776724,9.3490063333,0.4331270417,-3.2525389167
1403715526712140000,-0.0041887902,0.0237364778,0.0733038286,9.095667875,0.24516625,-3.2035056667
1403715526717140000,-0.0034906585,0.0104719755,0.0691150384,9.3163175,0.3514049583,-3.2361945
1403715526722140000,-0.0027925268,0.0125663706,0.0733038286,9.340834125,0.2615106667,-3.162644625
1403715526727140000,-0.0041887902,0.0174532925,0.0760963554,9.3571785417,0.318716125,-3.3669498333
1403715526732140000,-0.0020943951,0.0307177948,0.081681409,9.2999730833,0.3268883333,-3.138128
1403715526737140000,-0.0013962634,0.0286233997,0.081681409,9.2999730833,0.3595771667,-3.1217835833
1403715526742140000,-0.0013962634,0.0251327412,0.0802851456,9.1365289167,0.2369940417,-3.1463002083
1403715526747140000,0.0006981317,0.0146607657,0.0740019603,9.2754564583,0.3350605417,-3.1953334583
1403715526752140000,-0.0027925268,0.020943951,0.0767944871,9.2836286667,0.318716125,-3.2198500833
1403715526757140000,-0.0013962634,0.0125663706,0.0760963554,9.16921775,0.2941995,-3.2198500833
1403715526762140000,-0.0020943951,0.013962634,0.0760963554,9.3490063333,0.269682875,-3.2361945
1403715526767140000,0,0.0167551608,0.0767944871,9.1773899583,0.2860272917,-3.211677875
1403715526772140000,0.0027925268,0.020943951,0.074700092,9.3081452917,0.3105439167,-3.2035056667
1403715526777140000,-0.0006981317,0.0216420827,0.081681409,9.2019065833,0.2941995,-3.2035056667
1403715526782140000,-0.0006981317,0.027925268,0.0844739358,9.2509398333,0.3759215833,-3.211677875
1403715526787140000,-0.0020943951,0.0251327412,0.0844739358,9.1283567083,0.3595771667,-3.1463002083
1403715526792140000,-0.0055850536,0.0216420827,0.0760963554,9.26728425,0.3514049583,-3.2035056667
1403715526797140000,-0.0055850536,0.0167551608,0.081681409,9.095667875,0.196133,-3.1299557917
1403715526802140000,-0.0055850536,0.0174532925,0.0788888822,9.291800875,0.220649625,-3.2525389167
1403715526807140000,-0.0013962634,0.0146607657,0.0767944871,9.2754564583,0.2124774167,-3.1789890417
1403715526812140000,0.0006981317,0.0125663706,0.0698131701,9.340834125,0.2860272917,-3.260711125
1403715526817140000,0.0041887902,0.0195476876,0.0753982237,9.3244897083,0.2941995,-3.211677875
1403715526822140000,0.0034906585,0.0237364778,0.0795870139,9.3163175,0.392266,-3.2688833333
1403715526827140000,0.0013962634,0.0286233997,0.0774926188,9.3163175,0.4985047083,-3.2035056667
1403715526832140000,-0.0041887902,0.0244346095,0.081681409,9.193734375,0.3595771667,-3.1708168333
1403715526837140000,-0.0097738438,0.0244346095,0.0774926188,9.16921775,0.392266,-3.138128
1403715526842140000,-0.0083775804,0.0132645023,0.0851720675,9.1610455417,0.2533384583,-3.18716125
1403715526847140000,-0.0111701072,0.0167551608,0.074700092,9.2509398333,0.2941995,-3.2361945
1403715526852140000,-0.0055850536,0.0104719755,0.0823795407,9.2999730833,0.1879607917,-3.1953334583
1403715526857140000,0.0013962634,0.0132645023,0.0670206433,9.56148375,0.1307553333,-3.358777625
1403715526862140000,0.006981317,0.0202458193,0.0726056969,9.414384,0.3595771667,-3.48136075
1403715526867140000,0.006981317,0.0223402144,0.0795870139,9.340834125,0.4086104167,-3.2688833333
1403715526872140000,0.0034906585,0.0328121899,0.0823795407,9.5042782917,0.465815875,-3.28522775
1403715526877140000,-0.0048869219,0.0265290046,0.0837758041,9.2836286667,0.3350605417,-3.18716125
1403715526882140000,-0.0013962634,0.020943951,0.0767944871,9.5451393333,0.2615106667,-3.3260887917
1403715526887140000,-0.0041887902,0.020943951,0.0788888822,9.16921775,0.1634441667,-3.1299557917
1403715526892140000,-0.0048869219,0.0048869219,0.0726056969,9.36535075,0.171616375,-3.2361945
1403715526897140000,0.0090757121,0.0104719755,0.0970403064,9.65955025,0.367749375,-3.211677875
1403715526902140000,0.0027925268,0.0146607657,0.0935496479,9.7903055833,0.6946377083,-3.3506054167
1403715526907140000,-0.0167551608,0.0614355897,0.0900589894,9.3571785417,0.5475379583,-3.3506054167
1403715526912140000,-0.0390953752,0.0258308729,0.0656243799,8.3683413333,0.1389275417,-2.672312125
1403715526917140000,-0.0195476876,0.0062831853,0.0663225116,8.9322237083,-0.2369940417,-2.9746838333
1403715526922140000,0.0188495559,0.0006981317,0.0865683309,8.507268875,-0.0326888333,-2.9256505833
1403715526927140000,0.0376991118,0.006981317,0.0788888822,9.6186892083,0.34323275,-3.3015721667
1403715526932140000,0.0230383461,0.0335103216,0.0760963554,8.3274802917,0.612915625,-2.9501672083
1403715526937140000,-0.0041887902,-0.006981317,0.0446804289,8.8831904583,0.760015375,-3.064578125
1403715526942140000,-0.0188495559,0.0146607657,0.060737458,8.8586738333,0.5802267917,-2.9501672083
1403715526947140000,-0.0146607657,-0.0167551608,0.0914552528,8.9240515,0.5230213333,-3.2280222917
1403715526952140000,-0.0111701072,0.0195476876,0.0942477796,9.8475110417,0.220649625,-3.4404997083
1403715526957140000,-0.0111701072,0.0488692191,0.0907571211,8.825985,0.4331270417,-3.1544724167
1403715526962140000,-0.0188495559,-0.0013962634,0.0733038286,9.07115125,0.1634441667,-3.1789890417
1403715526967140000,-0.0216420827,0.013962634,0.0530580093,9.1610455417,0.0081722083,-3.1789890417
1403715526972140000,0.0090757121,-0.0034906585,0.0809832773,9.218251,-0.024516625,-3.3179165833
1403715526977140000,0.020943951,0.0097738438,0.0844739358,9.9374053333,0.073549875,-3.5467384167
1403715526982140000,0.0223402144,0.0509636142,0.074700092,8.9812569583,0.53936575,-3.211677875
1403715526987140000,-0.0041887902,0.0118682389,0.0565486678,9.4307284167,0.24516625,-3.2361945
1403715526992140000,-0.0111701072,0.0258308729,0.0481710874,9.46341725,0.1307553333,-3.2361945
1403715526997140000,0.0034906585,0.0132645023,0.0837758041,9.1038400833,0.3595771667,-3.2280222917
1403715527002140000,-0.0083775804,0.0342084533,0.0858701992,10.0354718333,0.3514049583,-3.5222217917
1403715527007140000,-0.0132645023,0.0614355897,0.0928515162,9.0629790417,0.4821602917,-3.113611375
1403715527012140000,-0.020943951,0.0216420827,0.074700092,9.1201845,-0.0898942917,-3.113611375
1403715527017140000,-0.0111701072,0.0321140582,0.0684169067,9.3326619167,-0.1634441667,-3.0482337083
1403715527022140000,0.0118682389,0.0041887902,0.0879645943,9.0057735833,0.2288218333,-3.138128
1403715527027140000,0.020943951,0.0111701072,0.0998328332,9.733100125,0.2778550833,-3.334261
1403715527032140000,0.0188495559,0.0446804289,0.10262536,9.0548068333,0.5475379583,-3.1217835833
1403715527037140000,0.0097738438,0.0083775804,0.0802851456,9.3326619167,0.4985047083,-3.1953334583
1403715527042140000,-0.0090757121,0.0174532925,0.0621337214,9.1855621667,0.4739880833,-3.113611375
1403715527047140000,-0.0153588974,-0.0104719755,0.0593411946,9.0139457917,0.5230213333,-3.18716125
1403715527052140000,-0.0027925268,0.0020943951,0.0865683309,9.65955025,0.5311935417,-3.2770555417
1403715527057140000,-0.0055850536,0.0321140582,0.0900589894,9.1610455417,0.5802267917,-3.2361945
1403715527062140000,-0.0146607657,0.0132645023,0.0830776724,9.1120122917,0.6210878333,-3.1708168333
1403715527067140000,-0.0160570291,0.0251327412,0.0663225116,9.3326619167,0.3023717083,-3.1708168333
1403715527072140000,-0.0160570291,0.0083775804,0.0411897703,8.97308475,0.024516625,-3.0809225417
1403715527077140000,0.0027925268,-0.0006981317,0.0635299848,9.218251,0.1797885833,-3.2443667083
1403715527082140000,0.0160570291,0.0216420827,0.0774926188,9.3980395833,0.2860272917,-3.2198500833
1403715527087140000,0.0230383461,0.0251327412,0.0942477796,9.0629790417,0.5802267917,-3.3015721667
1403715527092140000,0.0034906585,0.0244346095,0.0753982237,9.218251,0.6292600417,-3.1463002083
1403715527097140000,-0.0160570291,0.0244346095,0.067718775,9.0874956667,0.2778550833,-3.1217835833
1403715527102140000,-0.0202458193,0.0160570291,0.0551524044,8.9240515,-0.0653776667,-3.0972669583
1403715527107140000,-0.0020943951,0.0125663706,0.0830776724,9.3571785417,0.3023717083,-3.1217835833
1403715527112140000,0.0034906585,0.0335103216,0.0977384381,9.3081452917,0.1062387083,-3.138128
1403715527117140000,0.0055850536,0.0300196631,0.10262536,9.1610455417,0.4004382083,-3.1299557917
1403715527122140000,0.0006981317,0.027925268,0.0900589894,9.3244897083,0.2533384583,-3.0972669583
1403715527127140000,-0.0076794487,0.0335103216,0.0684169067,9.36535075,0.122583125,-3.162644625
1403715527132140000,-0.006981317,0.0167551608,0.0544542727,9.0629790417,-0.0898942917,-3.015544875
1403715527137140000,0.0104719755,0.0132645023,0.0670206433,9.5778281667,0.2860272917,-3.211677875
1403715527142140000,0.0174532925,0.0272271363,0.0984365698,9.2509398333,0.3268883333,-3.3015721667
1403715527147140000,0.0083775804,0.020943951,0.0942477796,9.4470728333,0.6701210833,-3.309744375
1403715527152140000,-0.0146607657,0.0286233997,0.0851720675,9.389867375,0.5720545833,-3.1217835833
1403715527157140000,-0.0286233997,0.0153588974,0.0600393263,9.0548068333,0.1307553333,-3.1217835833
1403715527162140000,-0.020943951,0,0.0572467995,9.414384,-0.0081722083,-3.162644625
1403715527167140000,-0.0006981317,0.006981317,0.067718775,9.3735229583,0.14709975,-3.2443667083
1403715527172140000,0.0090757121,0.0097738438,0.0844739358,9.2264232083,0.2288218333,-3.162644625
1403715527177140000,0.0104719755,0.0125663706,0.0928515162,9.5696559583,0.4739880833,-3.3669498333
1403715527182140000,0.0020943951,0.0251327412,0.0900589894,9.1283567083,0.6537766667,-3.0727503333
1403715527187140000,-0.0132645023,0.0104719755,0.0760963554,9.0793234583,0.3350605417,-3.1708168333
1403715527192140000,-0.0132645023,0.006981317,0.0558505361,9.4797616667,0.1797885833,-3.3015721667
1403715527197140000,-0.0013962634,0.0118682389,0.0712094335,9.1855621667,0.24516625,-3.2361945
1403715527202140000,0.0111701072,0.0160570291,0.081681409,9.1120122917,0.4494714583,-3.2443667083
1403715527207140000,0.006981317,0.0181514242,0.1047197551,9.2591120417,0.5475379583,-3.2933999583
1403715527212140000,-0.0055850536,0.0258308729,0.0963421747,9.1283567083,0.5066769167,-3.1708168333
1403715527217140000,-0.0125663706,0.0195476876,0.0774926188,9.16921775,0.367749375,-3.18716125
1403715527222140000,-0.0118682389,0.0146607657,0.0628318531,9.2264232083,0.0653776667,-3.2525389167
1403715527227140000,-0.0041887902,0.0104719755,0.0530580093,9.1201845,0.0408610417,-3.3015721667
1403715527232140000,0.0076794487,0.0146607657,0.0614355897,9.3326619167,0.3023717083,-3.2770555417
1403715527237140000,0.0104719755,0.0314159265,0.0858701992,9.3081452917,0.4249548333,-3.2933999583
1403715527242140000,0.0048869219,0.0272271363,0.0907571211,8.9403959167,0.3595771667,-3.0727503333
1403715527247140000,-0.0020943951,0.0230383461,0.0865683309,9.2754564583,0.5311935417,-3.2361945
1403715527252140000,-0.0153588974,0.0216420827,0.0733038286,9.3081452917,0.2778550833,-3.3424332083
1403715527257140000,-0.0132645023,0.0244346095,0.0551524044,9.2999730833,-0.0081722083,-3.1789890417
1403715527262140000,-0.0020943951,0.0174532925,0.0684169067,9.291800875,0.3759215833,-3.309744375
1403715527267140000,-0.0132645023,0.0300196631,0.074700092,9.36535075,0.4576436667,-3.2933999583
1403715527272140000,-0.0090757121,0.0383972435,0.095644043,9.3735229583,0.04903325,-3.309744375
1403715527277140000,0.0041887902,0.0328121899,0.0998328332,9.2509398333,0.0081722083,-3.1544724167
1403715527282140000,0.013962634,0.0237364778,0.1012290966,9.4961060833,0.171616375,-3.2198500833
1403715527287140000,0.013962634,0.0286233997,0.0698131701,9.7412723333,-0.3840937917,-3.2035056667
1403715527292140000,0.0363028484,0.0230383461,0.046774824,9.6513780417,-0.3840937917,-3.1708168333
1403715527297140000,0.0558505361,0.0321140582,0.0635299848,9.095667875,0.6782932917,-3.0482337083
1403715527302140000,0.0376991118,0.0090757121,0.081681409,9.3571785417,1.2912089167,-3.1708168333
1403715527307140000,-0.0132645023,0.0230383461,0.0914552528,9.5124505,1.3647587917,-3.3015721667
1403715527312140000,-0.0760963554,0.0153588974,0.0858701992,9.07115125,0.907115125,-3.0400615
1403715527317140000,-0.0879645943,0.0146607657,0.0795870139,9.1528733333,0.1144109167,-3.1217835833
1403715527322140000,-0.0705113018,0.0090757121,0.0656243799,9.0302902083,-0.4494714583,-2.8847895417
1403715527327140000,-0.0083775804,0.0090757121,0.0712094335,9.389867375,-0.907115125,-2.9992004583
1403715527332140000,0.0502654825,0.0216420827,0.0767944871,9.095667875,-0.6456044583,-3.0237170833
1403715527337140000,0.0802851456,0.0181514242,0.0760963554,9.1283567083,0.3840937917,-3.2688833333
1403715527342140000,0.0572467995,0.0230383461,0.0656243799,8.8423294167,1.0623870833,-3.1463002083
1403715527347140000,0.013962634,0.013962634,0.0684169067,9.3326619167,1.4137920417,-3.1708168333
1403715527352140000,-0.0146607657,0.0286233997,0.0928515162,9.022118,0.8989429167,-3.113611375
1403715527357140000,-0.0356047167,-0.0041887902,0.0893608577,8.9567403333,0.5557101667,-3.1544724167
1403715527362140000,-0.0474729557,0.0181514242,0.0705113018,9.3244897083,0.0817220833,-3.48136075
1403715527367140000,-0.0356047167,-0.0013962634,0.0719075652,9.1201845,0.1062387083,-3.1544724167
1403715527372140000,-0.0104719755,0.0237364778,0.0670206433,9.782133375,-0.2124774167,-3.358777625
1403715527377140000,0.0237364778,0.0223402144,0.0872664626,8.7197462917,0.0572054583,-2.9828560417
1403715527382140000,0.0230383461,0.0041887902,0.0753982237,9.7004112917,0.34323275,-3.5222217917
1403715527387140000,0.0048869219,0.0314159265,0.0663225116,9.16921775,0.3514049583,-3.113611375
1403715527392140000,0.0076794487,0.0097738438,0.0635299848,9.2999730833,0.1062387083,-3.1544724167
1403715527397140000,0.0300196631,0.0223402144,0.095644043,9.07115125,0.2778550833,-3.138128
1403715527402140000,0.0181514242,-0.0020943951,0.081681409,9.2100787917,0.367749375,-3.4486719167
1403715527407140000,-0.0132645023,0.0090757121,0.060737458,9.242767625,0.784532,-3.1708168333
1403715527412140000,-0.027925268,0.013962634,0.0670206433,9.4307284167,0.465815875,-3.0482337083
1403715527417140000,-0.0216420827,0.0195476876,0.0977384381,9.0302902083,-0.1389275417,-3.1789890417
1403715527422140000,-0.0167551608,0.0041887902,0.0935496479,9.5124505,-0.3023717083,-3.18716125
1403715527427140000,-0.0181514242,0.0342084533,0.0705113018,9.5451393333,-0.04903325,-3.1708168333
1403715527432140000,-0.0041887902,0.0195476876,0.081681409,9.193734375,-0.4086104167,-2.8766173333
1403715527437140000,0.0335103216,0.0237364778,0.0998328332,9.3490063333,-0.1797885833,-3.1789890417
1403715527442140000,0.0411897703,0.0111701072,0.0858701992,9.4307284167,0.0653776667,-3.3506054167
1403715527447140000,0.0104719755,0.0181514242,0.0656243799,9.46341725,1.0787315,-3.358777625
1403715527452140000,-0.013962634,0.0335103216,0.0600393263,9.1283567083,0.53936575,-3.1789890417
1403715527457140000,-0.0013962634,0.0132645023,0.0900589894,8.654368625,0.3514049583,-3.0972669583
1403715527462140000,0.0062831853,0.0034906585,0.0907571211,9.978266375,0.2533384583,-3.6366327083
1403715527467140000,-0.0188495559,0.0251327412,0.0586430629,9.2019065833,1.054214875,-3.1789890417
1403715527472140000,-0.0425860337,0.0328121899,0.0502654825,8.7442629167,0.44129925,-3.0318892917
1403715527477140000,-0.0132645023,0.0013962634,0.0921533845,8.7115740833,-0.04903325,-2.9256505833
1403715527482140000,-0.0062831853,0.0181514242,0.0830776724,10.05181625,0.0653776667,-3.6611493333
1403715527487140000,-0.0083775804,0.0383972435,0.074700092,8.97308475,0.5475379583,-3.0482337083
1403715527492140000,-0.0027925268,0.0356047167,0.0760963554,8.629852,0.0817220833,-2.89296175
1403715527497140000,0.0460766923,0.0062831853,0.1068141502,8.9240515,-0.3023717083,-3.064578125
1403715527502140000,0.0425860337,0.0216420827,0.0844739358,9.9210609167,0.4985047083,-3.4977051667
1403715527507140000,0.006981317,0.0516617459,0.0509636142,9.1283567083,1.12776475,-3.1708168333
1403715527512140000,-0.0146607657,0.0314159265,0.0753982237,8.4173745833,0.5557101667,-3.0237170833
1403715527517140000,-0.0041887902,0.0055850536,0.0942477796,9.85568325,-0.0081722083,-3.4241552917
1403715527522140000,-0.0146607657,0.0363028484,0.0705113018,9.5042782917,0.5720545833,-3.2443667083
1403715527527140000,-0.0390953752,0.0376991118,0.0509636142,8.9812569583,0.5066769167,-3.0809225417
1403715527532140000,-0.0097738438,0.0055850536,0.0949459113,8.9649125417,-0.3023717083,-2.8847895417
1403715527537140000,0.0097738438,0.0188495559,0.0830776724,10.0845050833,-0.122583125,-3.4323275
1403715527542140000,0,0.0383972435,0.0509636142,9.0874956667,0.514849125,-3.0318892917
1403715527547140000,-0.006981317,0.0188495559,0.0719075652,8.8586738333,0.44129925,-3.113611375
1403715527552140000,0.0132645023,0.0083775804,0.1061160185,9.5451393333,-0.0980665,-3.2280222917
1403715527557140000,0.0153588974,0.0397935069,0.0942477796,9.80665,0.1062387083,-3.260711125
1403715527562140000,-0.006981317,0.0307177948,0.0551524044,8.8423294167,0.6047434167,-3.0972669583
1403715527567140000,-0.0027925268,-0.0097738438,0.0858701992,8.6952296667,0.2369940417,-3.0482337083
1403715527572140000,0.0097738438,0.0083775804,0.0970403064,10.2888102917,0.024516625,-3.4404997083
1403715527577140000,-0.0055850536,0.0293215314,0.0335103216,8.8341572083,0.34323275,-3.08909475
1403715527582140000,-0.013962634,-0.0027925268,0.0656243799,8.629852,0.6946377083,-3.0482337083
1403715527587140000,-0.0013962634,-0.0062831853,0.1019272283,9.684066875,0.3514049583,-3.2361945
1403715527592140000,-0.0055850536,0.0328121899,0.0788888822,9.7984777917,0.0081722083,-3.2198500833
1403715527597140000,-0.0118682389,0.013962634,0.0586430629,8.6625408333,0.4331270417,-3.0482337083
1403715527602140000,0.0020943951,-0.0090757121,0.0935496479,9.1038400833,0.6782932917,-3.1789890417
1403715527607140000,0.0083775804,0.0286233997,0.116587994,10.002783,-0.0081722083,-3.4731885417
1403715527612140000,-0.0034906585,0.0376991118,0.046774824,9.3081452917,0.0326888333,-3.2280222917
1403715527617140000,0.0041887902,0.0020943951,0.0684169067,8.5971631667,0.7763597917,-3.0237170833
1403715527622140000,0.0034906585,0.0132645023,0.0928515162,9.7167557083,0.4739880833,-3.3751220417
1403715527627140000,-0.0111701072,0.0376991118,0.0565486678,8.9077070833,0,-2.99102825
1403715527632140000,-0.0118682389,-0.0181514242,0.0551524044,8.654368625,0.6701210833,-3.08909475
1403715527637140000,0,0.0048869219,0.0963421747,10.1171939167,0.612915625,-3.4977051667
1403715527642140000,-0.0160570291,0.0286233997,0.0809832773,8.5726465417,-0.0163444167,-3.08909475
1403715527647140000,-0.0013962634,-0.0034906585,0.0628318531,9.1773899583,0.1144109167,-3.3424332083
1403715527652140000,0.0167551608,0.0006981317,0.0991347015,9.438900625,0.3268883333,-3.162644625
1403715527657140000,0.0125663706,0.0356047167,0.0726056969,9.4225562083,0.1062387083,-3.1054391667
1403715527662140000,0.013962634,0.0055850536,0.0726056969,9.2264232083,0.1144109167,-3.4977051667
1403715527667140000,0.0104719755,0.0181514242,0.0844739358,9.635033625,1.0623870833,-3.3260887917
1403715527672140000,-0.0167551608,0.0593411946,0.0719075652,9.095667875,0.1552719583,-2.5824178333
1403715527677140000,-0.0188495559,-0.0020943951,0.0656243799,9.1528733333,0.1062387083,-2.8439285
1403715527682140000,-0.0090757121,-0.0020943951,0.0949459113,10.14988275,0.3595771667,-3.28522775
1403715527687140000,-0.0251327412,0.0446804289,0.0614355897,8.67888525,-0.171616375,-3.0727503333
1403715527692140000,-0.0104719755,-0.0062831853,0.0586430629,8.9567403333,0.0408610417,-3.28522775
1403715527697140000,0.0062831853,0.013962634,0.0872664626,9.7249279167,0.4004382083,-3.407810875
1403715527702140000,0.0041887902,0.0565486678,0.0733038286,8.5971631667,-0.1797885833,-3.358777625
1403715527707140000,0.013962634,-0.0097738438,0.0663225116,8.6461964167,0.0326888333,-3.38329425
1403715527712140000,0.0251327412,0.0118682389,0.0893608577,9.9946107917,0.7191543333,-3.5222217917
1403715527717140000,0.0013962634,0.0551524044,0.0684169067,8.4990966667,-0.0408610417,-2.770378625
1403715527722140000,0.0062831853,-0.0265290046,0.0705113018,8.8423294167,0.4903325,-2.9093061667
1403715527727140000,-0.0020943951,0.0230383461,0.1047197551,10.2888102917,1.0133538333,-3.554910625
1403715527732140000,-0.0307177948,0.0593411946,0.088662726,8.0496252083,-0.318716125,-3.4895329583
1403715527737140000,-0.0174532925,-0.0097738438,0.0921533845,9.6268614167,0.1879607917,-3.0482337083
1403715527742140000,-0.0062831853,0.0600393263,0.1103048087,9.7085835,0.710982125,-2.9338227917
1403715527747140000,-0.0104719755,0.0376991118,0.0733038286,8.2702748333,-0.4985047083,-3.358777625
1403715527752140000,0.0195476876,-0.0160570291,0.0858701992,9.5778281667,0.171616375,-3.2933999583
1403715527757140000,0.020943951,0.0649262482,0.0830776724,10.0845050833,0.661948875,-2.89296175
1403715527762140000,0.0104719755,0.006981317,0.0446804289,7.7799423333,-0.4004382083,-3.1544724167
1403715527767140000,0.0223402144,-0.041887902,0.0565486678,10.05181625,0.9643205833,-3.1463002083
1403715527772140000,-0.0006981317,0.0600393263,0.0726056969,10.0109552083,0.980665,-3.2770555417
1403715527777140000,-0.0272271363,0.0034906585,0.046774824,8.164036125,-0.0980665,-3.1544724167
1403715527782140000,-0.0181514242,-0.0167551608,0.0823795407,10.076332875,1.1195925417,-3.2688833333
1403715527787140000,-0.0265290046,0.0830776724,0.0963421747,8.752435125,-0.073549875,-2.99102825
1403715527792140000,-0.0146607657,-0.0167551608,0.0858701992,8.7932961667,-0.3023717083,-3.1544724167
1403715527797140000,0.0202458193,0.0167551608,0.1061160185,10.7055929167,0.8008764167,-3.2770555417
1403715527802140000,-0.0055850536,0.0705113018,0.0809832773,8.7115740833,0.0326888333,-3.1217835833
1403715527807140000,0.0090757121,-0.0481710874,0.0670206433,8.4173745833,0.0408610417,-3.113611375
1403715527812140000,0.0146607657,0.0090757121,0.0760963554,10.8935537083,1.1114203333,-3.334261
1403715527817140000,-0.020943951,0.0453785606,0.0656243799,7.9270420833,0.0980665,-3.0564059167
1403715527822140000,-0.0027925268,-0.0614355897,0.0712094335,8.6870574583,0.196133,-3.1463002083
1403715527827140000,0.0083775804,0.0272271363,0.0949459113,10.6892485,0.8499096667,-3.2525389167
1403715527832140000,-0.0104719755,0.0244346095,0.0837758041,7.967903125,-0.220649625,-3.0727503333
1403715527837140000,0.0111701072,-0.0649262482,0.095644043,10.4767710833,1.0378704583,-3.4323275
1403715527842140000,-0.0181514242,0.0593411946,0.0691150384,9.6186892083,0.4985047083,-3.1708168333
1403715527847140000,-0.0293215314,-0.0125663706,0.0446804289,7.7881145417,-0.1389275417,-2.9828560417
1403715527852140000,0.0097738438,-0.0300196631,0.0781907505,10.909898125,0.5230213333,-3.4404997083
1403715527857140000,-0.0083775804,0.1047197551,0.0760963554,9.1365289167,0,-3.2280222917
1403715527862140000,0.006981317,-0.0376991118,0.0872664626,7.5592927083,-0.171616375,-2.9992004583
1403715527867140000,0.0202458193,-0.0027925268,0.0942477796,11.2613030833,1.0215260417,-3.7101825833
1403715527872140000,-0.0097738438,0.0844739358,0.0949459113,7.7145646667,0.0081722083,-2.9501672083
1403715527877140000,0.0062831853,-0.0726056969,0.0872664626,8.3683413333,0.1797885833,-2.9828560417
1403715527882140000,-0.0055850536,0.0439822972,0.0712094335,11.056997875,0.93163175,-3.751043625
1403715527887140000,-0.0237364778,0.0572467995,0.0481710874,7.4612262083,-0.1797885833,-2.6804843333
1403715527892140000,0.0034906585,-0.0726056969,0.081681409,10.64021525,0.5311935417,-3.3914664583
1403715527897140000,-0.0125663706,0.10262536,0.0656243799,9.2019065833,-0.196133,-3.064578125
1403715527902140000,0.0160570291,-0.0370009801,0.0795870139,7.7472535,0.1797885833,-3.0073726667
1403715527907140000,0.0090757121,0.0237364778,0.0781907505,10.8036594167,0.9888372083,-3.407810875
1403715527912140000,-0.0090757121,0.0921533845,0.0809832773,8.262102625,0.0653776667,-2.6069344583
1403715527917140000,0.0062831853,-0.0572467995,0.109606677,8.6216797917,0.3105439167,-3.0564059167
1403715527922140000,-0.0048869219,0.0635299848,0.0963421747,10.8853815,0.171616375,-3.6938381667
1403715527927140000,0.0020943951,0.0265290046,0.0865683309,7.8534922083,0.073549875,-2.8275840833
1403715527932140000,0.0083775804,-0.0321140582,0.0712094335,9.9047165,0.8008764167,-3.4486719167
1403715527937140000,-0.0104719755,0.081681409,0.0781907505,9.782133375,0.0898942917,-2.99102825
1403715527942140000,0.0055850536,-0.020943951,0.0733038286,8.164036125,0.3840937917,-3.5467384167
1403715527947140000,-0.0104719755,-0.0034906585,0.0586430629,10.787315,-0.0081722083,-3.6121160833
1403715527952140000,-0.0027925268,0.0335103216,0.0691150384,8.2539304167,0.4086104167,-3.0318892917
1403715527957140000,-0.0076794487,-0.0132645023,0.0516617459,9.389867375,0.5311935417,-3.2525389167
1403715527962140000,0.0020943951,0.0502654825,0.0795870139,9.7494445417,0.0653776667,-3.28522775
1403715527967140000,0.0055850536,0.0195476876,0.0753982237,9.2754564583,0.8253930417,-3.5467384167
1403715527972140000,-0.0321140582,0.0460766923,0.0481710874,9.929233125,0.073549875,-3.6693215417
1403715527977140000,-0.0020943951,0.0586430629,0.081681409,8.7687795417,0.5066769167,-3.08909475
1403715527982140000,-0.0181514242,0.0411897703,0.0635299848,8.9158792917,0.2288218333,-2.868445125
1403715527987140000,-0.0006981317,0.0439822972,0.0837758041,8.8096405833,-0.2369940417,-3.0400615
1403715527992140000,0.0181514242,0.0076794487,0.0900589894,9.2100787917,0.73549875,-3.2280222917
1403715527997140000,-0.0118682389,0.0495673508,0.0565486678,8.7851239583,-0.2533384583,-2.819411875
1403715528002140000,0.0258308729,-0.0104719755,0.0991347015,9.0057735833,0.784532,-3.0727503333
1403715528007140000,-0.0048869219,0.0244346095,0.046774824,9.9700941667,0.5311935417,-3.849110125
1403715528012140000,0.0118682389,0.0188495559,0.0705113018,8.38468575,0.710982125,-3.0727503333
1403715528017140000,-0.0062831853,-0.0034906585,0.0460766923,10.198916,0.2860272917,-3.1463002083
1403715528022140000,-0.0195476876,0.0230383461,0.0530580093,8.6952296667,-0.2778550833,-2.9338227917
1403715528027140000,-0.0083775804,-0.0481710874,0.0788888822,8.9322237083,0.7436709583,-2.9992004583
1403715528032140000,-0.0439822972,0.0300196631,0.0551524044,10.4113934167,0.367749375,-3.3506054167
1403715528037140000,-0.0006981317,0.0216420827,0.1137954672,8.654368625,0.4494714583,-3.0400615
1403715528042140000,-0.0195476876,0.0188495559,0.067718775,9.9128887083,-0.2124774167,-3.8899711667
1403715528047140000,0.0111701072,0.0628318531,0.0788888822,8.9567403333,-0.3840937917,-2.721345375
1403715528052140000,0.0216420827,0.0286233997,0.0551524044,9.2509398333,0.122583125,-2.9011339583
1403715528057140000,-0.0048869219,0.0495673508,0.046774824,8.9322237083,-0.5965712083,-2.9746838333
1403715528062140000,0.0237364778,-0.0090757121,0.074700092,8.9649125417,0.5475379583,-3.2198500833
1403715528067140000,-0.0202458193,0.0439822972,0.0698131701,9.438900625,0.367749375,-3.4977051667
1403715528072140000,0.0090757121,0.0076794487,0.130550628,8.0496252083,0.612915625,-2.280046125
1403715528077140000,-0.0223402144,-0.0055850536,0.0844739358,10.1662271667,0.14709975,-3.6938381667
1403715528082140000,-0.0041887902,0.0300196631,0.1075122819,9.2836286667,0.1634441667,-3.211677875
1403715528087140000,-0.0027925268,0.0167551608,0.0893608577,9.4797616667,0.8907707083,-3.2361945
1403715528092140000,-0.0146607657,0.067718775,0.0858701992,9.218251,-0.2615106667,-2.8847895417
1403715528097140000,0.0181514242,0.0027925268,0.0970403064,8.5317855,0.122583125,-2.8357562917
1403715528102140000,-0.0097738438,0.0195476876,0.0530580093,10.2316048333,-0.1552719583,-3.5385662083
1403715528107140000,0.0216420827,0.0363028484,0.0781907505,8.3765135417,0.3023717083,-2.5170401667
1403715528112140000,0.0006981317,-0.0111701072,0.0272271363,9.85568325,0.196133,-3.652977125
1403715528117140000,-0.0041887902,0.0097738438,0.0551524044,8.752435125,0.465815875,-3.1217835833
1403715528122140000,-0.0132645023,-0.0041887902,0.0453785606,9.3980395833,0.6292600417,-3.4650163333
1403715528127140000,-0.020943951,0.0370009801,0.0600393263,9.610517,-0.661948875,-3.0972669583
1403715528132140000,-0.0027925268,-0.0125663706,0.074700092,9.1038400833,0.367749375,-3.015544875
1403715528137140000,-0.0383972435,0.0160570291,0.0572467995,9.684066875,0.4249548333,-3.77556025
1403715528142140000,-0.0027925268,0.0090757121,0.095644043,8.28661925,0.7191543333,-2.8030674583
1403715528147140000,-0.0097738438,-0.0020943951,0.0830776724,9.831166625,-0.0408610417,-3.358777625
1403715528152140000,0.0062831853,0.0390953752,0.0844739358,9.291800875,-0.6210878333,-3.2770555417
1403715528157140000,0.0314159265,-0.0125663706,0.0963421747,9.193734375,0.563882375,-3.0482337083
1403715528162140000,0.0223402144,0.0237364778,0.1179842574,9.4470728333,-0.4821602917,-3.064578125
1403715528167140000,0.0509636142,-0.0328121899,0.1117010721,9.1201845,0.784532,-3.0564059167
1403715528172140000,0.0055850536,0.0062831853,0.0949459113,9.56148375,0.7436709583,-3.6856659583
1403715528177140000,0.0104719755,0.0104719755,0.1082104136,8.4173745833,0.760015375,-2.6804843333
1403715528182140000,-0.0314159265,-0.006981317,0.067718775,10.1825715833,0.2124774167,-3.6202882917
1403715528187140000,-0.0223402144,0.0474729557,0.0600393263,9.9210609167,0.2288218333,-3.3260887917
1403715528192140000,-0.0202458193,0.020943951,0.0565486678,9.2509398333,1.0705592917,-3.3260887917
1403715528197140000,-0.027925268,0.0265290046,0.0579449312,8.997601375,-0.3350605417,-3.28522775
1403715528202140000,-0.0013962634,-0.0174532925,0.0649262482,9.291800875,0.122583125,-3.1054391667
1403715528207140000,-0.013962634,0.0055850536,0.041887902,9.4715894583,0.0817220833,-3.4731885417
1403715528212140000,0.0286233997,0.0230383461,0.1005309649,8.7932961667,-0.0081722083,-2.9992004583
1403715528217140000,0.0055850536,0,0.0656243799,9.2591120417,0.4249548333,-3.4486719167
1403715528222140000,0.0314159265,0.0439822972,0.1151917306,8.4010301667,0.5475379583,-2.6477955
1403715528227140000,0,-0.0174532925,0.0760963554,9.7739611667,-0.2124774167,-3.1544724167
1403715528232140000,0.0132645023,0.0425860337,0.0865683309,9.8393388333,0.6537766667,-3.3179165833
1403715528237140000,-0.0153588974,0.0125663706,0.0788888822,7.9106976667,1.1441091667,-2.5170401667
1403715528242140000,-0.0356047167,0.0083775804,0.0698131701,10.0191274167,-0.588399,-3.211677875
1403715528247140000,-0.0160570291,0.0335103216,0.0628318531,8.850501625,0.8499096667,-2.476179125
1403715528252140000,-0.0321140582,-0.0314159265,0.0579449312,9.0057735833,-0.0163444167,-3.0482337083
1403715528257140000,0.0125663706,0,0.0774926188,9.487933875,0.1634441667,-2.745862
1403715528262140000,-0.0223402144,-0.0363028484,0.0223402144,9.0548068333,0.0980665,-3.3751220417
1403715528267140000,0.0195476876,0,0.0656243799,10.1335383333,0.3023717083,-2.9338227917
1403715528272140000,-0.0076794487,-0.0090757121,0.0251327412,9.4961060833,0.0572054583,-3.2280222917
1403715528277140000,0.0174532925,0.0195476876,0.0774926188,9.0874956667,0.8825985,-3.064578125
1403715528282140000,-0.0146607657,-0.0195476876,0.0656243799,8.7279185,0.269682875,-2.3862848333
1403715528287140000,0.006981317,-0.0314159265,0.1068141502,9.8393388333,0.2533384583,-3.7183547917
1403715528292140000,-0.0041887902,-0.0286233997,0.1047197551,8.5399577083,1.3565865833,-2.329079375
1403715528297140000,-0.0167551608,-0.0432841654,0.1103048087,10.125366125,-0.3759215833,-3.6366327083
1403715528302140000,0.0076794487,0.0223402144,0.0977384381,9.1610455417,0.5965712083,-2.69682875
1403715528307140000,-0.0153588974,-0.0342084533,0.0698131701,8.9077070833,0.1307553333,-3.2770555417
1403715528312140000,0.0202458193,0.0251327412,0.0781907505,9.4961060833,0.53936575,-2.917478375
1403715528317140000,-0.0188495559,-0.027925268,0.0230383461,8.3765135417,0.53936575,-3.38329425
1403715528322140000,0.0055850536,-0.0083775804,0.0572467995,8.5399577083,0.7191543333,-2.8030674583
1403715528327140000,-0.0153588974,-0.0509636142,0.0314159265,8.7687795417,-0.3268883333,-3.505877375
1403715528332140000,0.0055850536,-0.0167551608,0.0774926188,9.1855621667,0.9398039583,-2.966511625
1403715528337140000,-0.013962634,-0.0495673508,0.0921533845,8.9322237083,0.3268883333,-3.4977051667
1403715528342140000,0.0055850536,0.0062831853,0.1214749159,9.75761675,0.024516625,-3.260711125
1403715528347140000,0.0118682389,-0.046774824,0.1333431549,7.967903125,1.1359369583,-2.6477955
1403715528352140000,0.0090757121,-0.0223402144,0.1410226036,10.615698625,-0.3023717083,-4.3966480833
1403715528357140000,0.0230383461,-0.0286233997,0.1151917306,8.213069375,0.4576436667,-1.9286411667
1403715528362140000,-0.0048869219,-0.0649262482,0.0998328332,10.54214875,0.5557101667,-4.9114972083
1403715528367140000,0.0132645023,-0.0125663706,0.0907571211,8.6380242083,0,-1.495514125
1403715528372140000,-0.0041887902,-0.1207767842,0.0509636142,10.1825715833,0.2615106667,-4.9196694167
1403715528377140000,0.0132645023,-0.0516617459,0.0691150384,8.7279185,0.269682875,-1.740680375
1403715528382140000,0.0020943951,-0.1514945791,0.0474729557,10.9017259167,0.0980665,-4.7153642083
1403715528387140000,-0.0013962634,-0.053756141,0.0760963554,8.850501625,0.7191543333,-2.083913125
1403715528392140000,-0.0104719755,-0.1654572131,0.0663225116,10.7219373333,0.0898942917,-4.437509125
1403715528397140000,-0.0160570291,-0.0272271363,0.0656243799,9.65955025,0.3840937917,-2.378112625
1403715528402140000,-0.0146607657,-0.1696460033,0.0928515162,8.6380242083,0.1144109167,-3.800076875
1403715528407140000,-0.0027925268,-0.0509636142,0.1033234917,11.3593695833,-0.24516625,-3.530394
1403715528412140000,0.0104719755,-0.1326450232,0.1291543646,7.2896098333,0.4903325,-2.181979625
1403715528417140000,0.0062831853,-0.1019272283,0.1375319451,11.8006688333,-0.3514049583,-5.0831135833
1403715528422140000,0.0097738438,-0.109606677,0.1333431549,6.545938875,0.5802267917,-2.770378625
1403715528427140000,-0.0195476876,-0.1710422667,0.1242674427,12.5688564167,-0.0653776667,-5.025908125
1403715528432140000,-0.013962634,-0.1012290966,0.1186823891,6.1209840417,0.7681875833,-0.7028099167
1403715528437140000,-0.0258308729,-0.1815142422,0.1158898623,12.429928875,-0.661948875,-6.0474341667
1403715528442140000,-0.0055850536,-0.184306769,0.1200786525,5.8513011667,0.6292600417,-0.4903325
1403715528447140000,-0.0244346095,-0.2673844414,0.1172861257,12.5116509583,-0.5557101667,-5.516240625
1403715528452140000,0.0083775804,-0.156381501,0.1249655744,6.6031443333,0.5230213333,-1.4056198333
1403715528457140000,-0.0321140582,-0.3141592654,0.1089085453,11.8578742917,0.14709975,-5.1975245
1403715528462140000,0.0062831853,-0.1382300768,0.1452113938,7.4939150417,0.2533384583,-1.8224024583
1403715528467140000,-0.0251327412,-0.3099704752,0.1466076572,10.3296713333,0.3105439167,-4.5519200417
1403715528472140000,0.0006981317,-0.1521927108,0.1738347935,9.4470728333,-0.4004382083,-2.0757409167
1403715528477140000,-0.0090757121,-0.2708750999,0.1836086373,11.375714,0.171616375,-4.7970862917
1403715528482140000,0.013962634,-0.0837758041,0.184306769,8.4255467917,0.3023717083,-2.5579012083
1403715528487140000,-0.0118682389,-0.2080432468,0.1591740278,13.0346722917,-0.661948875,-4.3966480833
1403715528492140000,-0.0041887902,-0.0935496479,0.1249655744,8.1803805417,0.5066769167,-3.0482337083
1403715528497140000,-0.0363028484,-0.1319468915,0.1256637061,12.1439015833,-0.2369940417,-4.2740649583
1403715528502140000,-0.0286233997,-0.0474729557,0.1089085453,8.3029636667,0.3350605417,-2.9011339583
1403715528507140000,-0.0439822972,-0.0921533845,0.123569311,11.547330375,-0.6456044583,-4.4701979583
1403715528512140000,-0.0125663706,-0.0174532925,0.1068141502,7.477570625,0.1389275417,-2.6886565417
1403715528517140000,-0.006981317,-0.0907571211,0.1417207353,11.9804574167,-0.4004382083,-4.927841625
1403715528522140000,0.0034906585,0.0474729557,0.116587994,7.8616644167,0.0980665,-2.721345375
1403715528527140000,-0.0174532925,-0.0691150384,0.1368338134,11.6617412917,0.0163444167,-5.0177359167
1403715528532140000,-0.0216420827,0.0635299848,0.1291543646,7.50208725,0.7763597917,-1.495514125
1403715528537140000,-0.0293215314,-0.1040216234,0.1766273203,12.0213184583,-0.4739880833,-5.4753795833
1403715528542140000,-0.006981317,-0.0090757121,0.1891936909,7.649187,-0.1062387083,-1.8632635
1403715528547140000,0.0188495559,-0.0307177948,0.1850049007,12.0540072917,-1.0869037083,-5.1975245
1403715528552140000,0.0446804289,-0.0188495559,0.1794198471,7.99241975,0.1797885833,-1.9776744167
1403715528557140000,0.0293215314,-0.0397935069,0.1535889742,11.8251854583,-0.4494714583,-4.5437478333
1403715528562140000,0.013962634,-0.0083775804,0.1535889742,8.654368625,1.005181625,-2.819411875
1403715528567140000,-0.0167551608,0.0174532925,0.1584758961,12.2501402917,-0.196133,-4.6091255
1403715528572140000,-0.0293215314,0.0628318531,0.1445132621,8.5481299167,0.8825985,-2.5088679583
1403715528577140000,-0.0300196631,0.0481710874,0.149400184,11.1959254167,-0.710982125,-3.92266
1403715528582140000,-0.0048869219,0.1054178868,0.1480039206,8.8586738333,0.612915625,-2.9746838333
1403715528587140000,-0.0111701072,0.0907571211,0.1340412866,11.9722852083,-0.2941995,-3.48136075
1403715528592140000,0.0041887902,0.1158898623,0.1158898623,10.1335383333,0.0326888333,-3.015544875
1403715528597140000,-0.0118682389,0.13543755,0.1130973355,10.2316048333,0.4086104167,-3.9798654583
1403715528602140000,-0.0251327412,0.0823795407,0.0942477796,8.801468375,-0.0081722083,-2.9093061667
1403715528607140000,-0.0293215314,0.1242674427,0.1047197551,10.6320430417,0.171616375,-3.8817989583
1403715528612140000,-0.0251327412,0.1033234917,0.1249655744,8.4173745833,0.0572054583,-2.8766173333
1403715528617140000,-0.0342084533,0.1263618378,0.1312487597,10.1825715833,-0.1144109167,-3.996209875
1403715528622140000,-0.0195476876,0.0970403064,0.1514945791,8.3193080833,-0.1307553333,-2.4434902917
1403715528627140000,0,0.1410226036,0.1822123739,10.7464539583,-0.392266,-4.2985815833
1403715528632140000,0.0083775804,0.1061160185,0.1661553448,8.0986584583,0.0898942917,-2.3372515833
1403715528637140000,0.0083775804,0.1256637061,0.1654572131,10.9916202083,-0.5475379583,-3.1299557917
1403715528642140000,0.0090757121,0.1144935989,0.1396263402,10.34601575,-0.1062387083,-3.5467384167
1403715528647140000,-0.020943951,0.1040216234,0.1312487597,9.7494445417,1.1441091667,-2.9828560417
1403715528652140000,-0.0495673508,0.0844739358,0.1473057889,10.468598875,-0.3595771667,-3.5712550417
1403715528657140000,-0.0453785606,0.1396263402,0.1514945791,10.1090217083,0.0980665,-3.1217835833
1403715528662140000,-0.0363028484,0.1033234917,0.1445132621,9.6186892083,-0.196133,-3.67749375
1403715528667140000,-0.0174532925,0.1361356817,0.13543755,10.9180703333,-0.6782932917,-3.1544724167
1403715528672140000,0.0013962634,0.1193805208,0.1012290966,9.8229944167,-0.0898942917,-3.726527
1403715528677140000,-0.0125663706,0.1696460033,0.0942477796,10.9425869583,-0.0163444167,-3.87362675
1403715528682140000,-0.0363028484,0.13543755,0.067718775,7.9760753333,1.201314625,-3.1054391667
1403715528687140000,-0.0579449312,0.109606677,0.1200786525,10.1335383333,-0.196133,-3.996209875
1403715528692140000,-0.0614355897,0.0837758041,0.1144935989,7.771770125,0.8907707083,-3.8164212917
1403715528697140000,-0.0509636142,0.0642281165,0.163362818,9.9946107917,0.1552719583,-3.554910625
1403715528702140000,-0.0167551608,0.041887902,0.149400184,8.8668460417,-0.8417374583,-3.38329425
1403715528707140000,0.0027925268,0.0893608577,0.130550628,10.5503209583,0.0163444167,-3.7183547917
1403715528712140000,0.0097738438,0.081681409,0.1082104136,8.556302125,-0.0653776667,-3.38329425
1403715528717140000,-0.0125663706,0.13543755,0.0963421747,10.9752757917,0.3595771667,-3.9635210417
1403715528722140000,-0.0307177948,0.123569311,0.109606677,7.60015375,0.9643205833,-2.7785508333
1403715528727140000,-0.0474729557,0.13543755,0.1438151304,11.3838862083,0.0081722083,-4.3803036667
1403715528732140000,-0.0530580093,0.1368338134,0.1417207353,6.864655,0.4821602917,-1.9695022083
1403715528737140000,-0.034906585,0.0809832773,0.1598721595,11.5146415417,-1.152281375,-3.996209875
1403715528742140000,-0.0223402144,0.0963421747,0.1228711793,7.3386430833,0.4494714583,-2.10842975
1403715528747140000,0.0118682389,0.0300196631,0.1480039206,11.6617412917,0.53936575,-3.8654545417
1403715528752140000,-0.0090757121,0.0921533845,0.0802851456,8.7851239583,-0.3105439167,-2.5333845833
1403715528757140000,-0.0048869219,0.0726056969,0.0977384381,10.223432625,0.6047434167,-4.3803036667
1403715528762140000,-0.0509636142,0.0216420827,0.0628318531,8.3193080833,0.392266,-2.5170401667
1403715528767140000,-0.0404916386,0.0851720675,0.0970403064,10.6075264167,0.2860272917,-4.6091255
1403715528772140000,-0.0726056969,0.0188495559,0.074700092,7.7390812917,0.2860272917,-2.476179125
1403715528777140000,-0.053756141,0.0600393263,0.0928515162,11.22861425,-0.4576436667,-4.75622525
1403715528782140000,-0.0530580093,0.0621337214,0.0579449312,7.5184316667,-0.1634441667,-2.0185354583
1403715528787140000,-0.013962634,0.0509636142,0.0844739358,11.449263875,-0.6537766667,-4.0288987083
1403715528792140000,-0.0237364778,0.0921533845,0.0460766923,8.38468575,0.5475379583,-2.868445125
1403715528797140000,-0.0216420827,0.0809832773,0.0802851456,10.9180703333,0,-3.9880376667
1403715528802140000,-0.0453785606,0.1466076572,0.053756141,8.507268875,0.4903325,-2.9746838333
1403715528807140000,-0.0439822972,0.0858701992,0.1033234917,9.7903055833,0.024516625,-4.6009532917
1403715528812140000,-0.0446804289,0.1075122819,0.0830776724,8.8668460417,-0.34323275,-3.1953334583
1403715528817140000,-0.006981317,0.1514945791,0.1389282085,10.0599884583,-0.63743225,-4.339442625
1403715528822140000,-0.0097738438,0.1263618378,0.0935496479,8.5236132917,-0.1879607917,-2.3372515833
1403715528827140000,0.0013962634,0.1466076572,0.116587994,11.0651700833,0.0081722083,-4.0125542917
1403715528832140000,-0.0160570291,0.1626646863,0.0621337214,8.6952296667,0.6782932917,-2.3617682083
1403715528837140000,-0.034906585,0.1521927108,0.0663225116,11.1468921667,0.0163444167,-3.8899711667
1403715528842140000,-0.0495673508,0.1626646863,0.0097738438,7.69822025,0.4004382083,-1.8060580417
1403715528847140000,-0.0684169067,0.0719075652,0.0125663706,10.321499125,-0.4739880833,-4.2086872917
1403715528852140000,-0.0495673508,0.1005309649,-0.0062831853,8.1476917083,-0.24516625,-2.3372515833
1403715528857140000,-0.0432841654,0.0013962634,0.0258308729,10.64021525,-0.8907707083,-4.8379473333
1403715528862140000,-0.0202458193,0.1068141502,0.0125663706,7.6410147917,0.7763597917,-2.0021910417
1403715528867140000,-0.0502654825,0.0132645023,0.0481710874,10.076332875,-0.1062387083,-4.8216029167
1403715528872140000,-0.0432841654,0.1012290966,0.0265290046,7.9352142917,0.588399,-1.9695022083
1403715528877140000,-0.067718775,-0.0048869219,0.0649262482,10.4522544583,-0.1879607917,-5.099458
1403715528882140000,-0.0474729557,0.1033234917,0.0495673508,8.4990966667,-0.1634441667,-1.593580625
1403715528887140000,-0.0342084533,0.0188495559,0.1117010721,10.2888102917,-0.073549875,-4.339442625
1403715528892140000,0.0062831853,0.1172861257,0.1158898623,8.6625408333,-0.5557101667,-1.6017528333
1403715528897140000,0.0013962634,0.0230383461,0.1500983157,11.1714087917,0.514849125,-4.9932192917
1403715528902140000,0.0027925268,0.1452113938,0.1291543646,9.3735229583,0.0081722083,-1.8796079167
1403715528907140000,-0.0321140582,0.0167551608,0.1144935989,9.9455775417,-0.7681875833,-4.7480530417
1403715528912140000,-0.0321140582,0.1445132621,0.0809832773,7.40402075,0.661948875,-1.740680375
1403715528917140000,-0.0356047167,0.0160570291,0.0809832773,11.0815145,-1.0950759167,-5.173007875
1403715528922140000,-0.0153588974,0.1179842574,0.0551524044,7.7472535,0.661948875,-1.985846625
1403715528927140000,-0.0055850536,0.0132645023,0.0830776724,10.5094599167,-0.6210878333,-5.0013915
1403715528932140000,-0.0174532925,0.1319468915,0.0439822972,8.115002875,1.0133538333,-1.9940188333
1403715528937140000,-0.053756141,-0.0174532925,0.0649262482,9.6186892083,0.2043052083,-4.707192
1403715528942140000,-0.0670206433,0.109606677,0.0118682389,7.9515587083,0.0980665,-1.8060580417
1403715528947140000,-0.060737458,-0.0670206433,0.0439822972,8.9403959167,-0.0898942917,-4.437509125
1403715528952140000,-0.0495673508,0.0628318531,0.0020943951,8.825985,-0.7028099167,-1.495514125
1403715528957140000,-0.020943951,-0.1270599695,0.0230383461,8.3928579583,0.269682875,-3.9308322083
1403715528962140000,-0.0020943951,0.0265290046,0.0090757121,9.880199875,0.760015375,-0.9152873333
1403715528967140000,-0.0167551608,-0.1396263402,-0.0055850536,11.3348529583,-0.2533384583,-5.0422525417
1403715528972140000,-0.0258308729,0.0041887902,-0.0293215314,7.3876763333,0.3350605417,-1.593580625
1403715528977140000,-0.0460766923,-0.1682497399,-0.0397935069,11.3593695833,0.2369940417,-5.4590351667
1403715528982140000,-0.053756141,0.0460766923,-0.0446804289,8.7197462917,-0.269682875,-2.1166019583
1403715528987140000,-0.0335103216,-0.1452113938,-0.0705113018,9.9128887083,-0.7191543333,-5.4345185417
1403715528992140000,0.0020943951,0.0753982237,-0.0041887902,8.4664078333,-0.6782932917,-1.9449855833
1403715528997140000,0.0439822972,-0.0942477796,-0.020943951,9.36535075,-1.0705592917,-4.584608875
1403715529002140000,0.0879645943,0.0970403064,0.0767944871,8.9812569583,-0.1307553333,-2.525212375
1403715529007140000,0.081681409,-0.034906585,0.0579449312,9.414384,0.024516625,-3.9063155833
1403715529012140000,0.0740019603,0.0914552528,0.1123992038,8.5317855,0.5230213333,-1.8714357083
1403715529017140000,0.0495673508,-0.0914552528,0.0760963554,8.8831904583,-0.367749375,-4.6254699167
1403715529022140000,0.0712094335,0.0132645023,0.0760963554,7.8371477917,-0.2043052083,-2.69682875
1403715529027140000,0.0733038286,-0.1054178868,0.0823795407,9.7739611667,-0.6864655,-4.06975975
1403715529032140000,0.1172861257,-0.0376991118,0.0432841654,8.2784470417,-0.1552719583,-2.3454237917
1403715529037140000,0.1284562329,-0.0977384381,0.0977384381,9.7085835,0.0163444167,-3.898143375
1403715529042140000,0.1319468915,-0.0523598776,0.0593411946,8.9322237083,0.1634441667,-3.113611375
1403715529047140000,0.1228711793,-0.1019272283,0.1158898623,10.5094599167,0.367749375,-4.1596540417
1403715529052140000,0.1249655744,0.0083775804,0.1040216234,9.8475110417,0.0163444167,-2.9093061667
1403715529057140000,0.1242674427,-0.0949459113,0.1689478716,10.0926772917,-0.0408610417,-4.3312704167
1403715529062140000,0.1480039206,0.0083775804,0.1249655744,11.0978589167,-0.8989429167,-2.8112396667
1403715529067140000,0.1801179788,-0.1214749159,0.1452113938,9.6023447917,-0.760015375,-4.3476148333
1403715529072140000,0.2129301687,0.0390953752,0.0998328332,9.684066875,-0.0163444167,-2.280046125
1403715529077140000,0.1877974275,-0.1082104136,0.0740019603,12.920261375,-0.1144109167,-5.4508629583
1403715529082140000,0.1822123739,0.046774824,0.0411897703,8.6870574583,1.3075533333,-2.5415567917
1403715529087140000,0.1507964474,0.0097738438,0.0439822972,12.4544455,-0.0163444167,-4.4129925
1403715529092140000,0.1459095255,0.1214749159,0.0705113018,9.1038400833,0.563882375,-2.9256505833
1403715529097140000,0.1668534765,0.0062831853,0.067718775,11.179581,-1.6262694583,-5.1076302083
1403715529102140000,0.2178170906,0.123569311,0.0977384381,8.5154410833,-0.3514049583,-2.5333845833
1403715529107140000,0.252025544,-0.0076794487,0.0425860337,11.3185085417,-1.0950759167,-4.9196694167
1403715529112140000,0.2757620218,0.0795870139,0.0635299848,8.2539304167,0.220649625,-2.5333845833
1403715529117140000,0.2429498319,-0.0202458193,0,12.160246,0.7518431667,-4.6091255
1403715529122140000,0.2227040126,0.0314159265,0.0146607657,8.3928579583,0.4004382083,-2.549729
1403715529127140000,0.1822123739,-0.0104719755,0.0111701072,10.44408225,-0.14709975,-4.4947145833
1403715529132140000,0.2254965394,-0.034906585,0.0272271363,9.0139457917,-0.5720545833,-2.6477955
1403715529137140000,0.2548180708,0.0390953752,0.0593411946,10.7301095417,-1.103248125,-4.56009225
1403715529142140000,0.293913446,-0.0125663706,0.0258308729,9.7494445417,-0.0898942917,-2.7376897917
1403715529147140000,0.3043854215,0.0062831853,0.0502654825,10.6238708333,-0.2369940417,-4.3476148333
1403715529152140000,0.2757620218,0.0027925268,-0.0104719755,8.5726465417,1.0787315,-2.1411185833
1403715529157140000,0.2638937829,-0.0614355897,0.0307177948,11.5636747917,0.024516625,-4.8869805833
1403715529162140000,0.2436479636,-0.0181514242,-0.020943951,7.575637125,0.4576436667,-2.5333845833
1403715529167140000,0.2583087293,-0.0942477796,0.034906585,11.5391581667,-0.710982125,-4.3476148333
1403715529172140000,0.279950812,-0.0509636142,0.0006981317,9.536967125,-0.0408610417,-3.0809225417
1403715529177140000,0.3015928947,-0.088662726,0.0167551608,10.7791427917,-0.0980665,-4.0207265
1403715529182140000,0.3246312409,-0.020943951,0.0335103216,9.3326619167,-0.0163444167,-2.7376897917
1403715529187140000,0.2994984996,-0.0286233997,-0.0132645023,12.01314625,0.6292600417,-4.7480530417
1403715529192140000,0.3029891581,-0.0628318531,-0.0132645023,7.9515587083,-0.2533384583,-2.1901518333
1403715529197140000,0.2876302607,-0.0034906585,-0.0363028484,11.8987353333,0.6456044583,-4.707192
1403715529202140000,0.2932153143,-0.0977384381,-0.0439822972,7.2732654167,-0.3840937917,-1.9776744167
1403715529207140000,0.3232349775,-0.041887902,-0.0167551608,11.056997875,-0.1879607917,-4.46202575
1403715529212140000,0.3358013481,-0.1584758961,0.0062831853,9.1201845,0.1062387083,-2.427145875
1403715529217140000,0.3323106896,-0.0181514242,0.0153588974,10.6075264167,0.2288218333,-4.5927810833
1403715529222140000,0.3169517922,-0.1487020523,-0.0076794487,8.4664078333,0.3268883333,-2.2637017083
1403715529227140000,0.3085742118,-0.0376991118,-0.020943951,11.4329194583,-0.2615106667,-2.69682875
1403715529232140000,0.3190461873,-0.1054178868,-0.0558505361,7.8044589583,-0.7028099167,-3.3506054167
1403715529237140000,0.3420845334,-0.0802851456,-0.0251327412,9.635033625,0.7763597917,-3.4404997083
1403715529242140000,0.319744319,-0.1151917306,-0.0837758041,8.1395195,-0.5475379583,-3.064578125
1403715529247140000,0.3302162945,-0.1256637061,-0.0446804289,9.144701125,0.5475379583,-4.5519200417
1403715529252140000,0.3309144262,-0.1417207353,-0.0551524044,7.9352142917,0.0326888333,-3.0972669583
1403715529257140000,0.3378957432,-0.1459095255,-0.0691150384,11.2122698333,-0.5965712083,-3.9880376667
1403715529262140000,0.3567452991,-0.0914552528,-0.0404916386,8.311135875,0.367749375,-2.7376897917
1403715529267140000,0.3385938749,-0.1396263402,-0.0642281165,10.566665375,-0.5965712083,-4.1024485833
1403715529272140000,0.354650904,-0.041887902,-0.0453785606,6.8809994167,0.907115125,-1.8959523333
1403715529277140000,0.3323106896,-0.1326450232,-0.0600393263,11.6862579167,-0.8907707083,-4.85429175
1403715529282140000,0.3679154063,-0.020943951,-0.0684169067,5.565273875,0.6456044583,-1.2421756667
1403715529287140000,0.3567452991,-0.1968731396,-0.0544542727,11.6290524583,-0.9152873333,-4.9605304583
1403715529292140000,0.3658210112,-0.0656243799,-0.0858701992,5.1403190417,0.858081875,-0.9234595417
1403715529297140000,0.347669587,-0.1452113938,-0.0893608577,11.71894675,-0.8499096667,-5.418174125
1403715529302140000,0.3762929867,-0.1396263402,-0.0851720675,7.1915433333,0.710982125,-1.250347875
1403715529307140000,0.3462733236,-0.1382300768,-0.095644043,10.6729040833,-0.2778550833,-5.3854852917
1403715529312140000,0.3644247478,-0.0474729557,-0.1326450232,7.649187,-0.2369940417,-1.3647587917
1403715529317140000,0.3532546406,-0.1186823891,-0.0907571211,8.5236132917,0.956148375,-4.5764366667
1403715529322140000,0.3504621138,-0.0572467995,-0.1221730476,8.4745800417,-0.9643205833,-1.8714357083
1403715529327140000,0.3588396942,-0.1263618378,-0.0649262482,7.5674649167,0.980665,-4.143309625
1403715529332140000,0.3539527723,-0.0928515162,-0.081681409,7.6164981667,-0.2778550833,-1.642613875
1403715529337140000,0.3574434308,-0.1954768762,-0.0802851456,8.115002875,-0.63743225,-3.4159830833
1403715529342140000,0.382576172,-0.156381501,-0.1005309649,8.8096405833,-0.5802267917,-2.7867230417
1403715529347140000,0.3860668305,-0.1801179788,-0.1605702912,8.8423294167,-0.1389275417,-3.358777625
1403715529352140000,0.3867649622,-0.0774926188,-0.1459095255,9.3244897083,0.8989429167,-3.1953334583
1403715529357140000,0.3567452991,-0.0649262482,-0.1926843494,9.487933875,0.3105439167,-2.8275840833
1403715529362140000,0.326725636,0.0027925268,-0.163362818,8.825985,0.53936575,-3.7101825833
1403715529367140000,0.3504621138,-0.0132645023,-0.1487020523,8.2294137917,-0.4086104167,-2.0593965
1403715529372140000,0.3623303527,0.0719075652,-0.1284562329,9.2100787917,-0.5965712083,-4.0043820833
1403715529377140000,0.4098033084,-0.0516617459,-0.0893608577,6.0964674167,0.563882375,-0.93163175
1403715529382140000,0.3923500158,-0.0223402144,-0.0998328332,10.1417105417,-0.9398039583,-5.2302133333
1403715529387140000,0.4042182548,-0.0586430629,-0.130550628,5.8267845417,1.1441091667,-1.32389775
1403715529392140000,0.3769911184,-0.1130973355,-0.1179842574,10.9180703333,-0.04903325,-4.511059
1403715529397140000,0.3762929867,-0.0125663706,-0.1473057889,5.7695790833,1.3647587917,-1.22583125
1403715529402140000,0.3295181628,-0.0404916386,-0.109606677,11.4656082917,-0.8417374583,-4.7970862917
1403715529407140000,0.3525565089,0.0020943951,-0.1200786525,6.4070113333,0.9643205833,-1.2176590417
1403715529412140000,0.3588396942,-0.0062831853,-0.0432841654,10.3133269167,-1.1686257917,-4.5028867917
1403715529417140000,0.3769911184,0.027925268,-0.1172861257,7.477570625,-0.073549875,-2.083913125
1403715529422140000,0.382576172,0.013962634,-0.0335103216,8.556302125,0.7028099167,-4.2250317083
1403715529427140000,0.3665191429,0.0670206433,-0.0802851456,8.5317855,-0.171616375,-1.8469190833
1403715529432140000,0.3211405824,-0.0202458193,-0.0760963554,8.5644743333,0.6946377083,-4.045243125
1403715529437140000,0.3295181628,0.088662726,-0.0663225116,8.948568125,0.4576436667,-1.985846625
1403715529442140000,0.2988003679,-0.0111701072,-0.1117010721,8.2539304167,-0.5066769167,-3.5630828333
1403715529447140000,0.3141592654,0.074700092,-0.1089085453,9.4225562083,-0.6946377083,-2.8602729167
1403715529452140000,0.3148573971,0.013962634,-0.149400184,8.3029636667,0.367749375,-3.2770555417
1403715529457140000,0.3106686069,0.1040216234,-0.1047197551,8.5726465417,-0.2615106667,-2.2637017083
1403715529462140000,0.300894763,0.0425860337,-0.1473057889,8.8178127917,0.3514049583,-3.3996386667
1403715529467140000,0.2876302607,0.1040216234,-0.1110029404,7.5838093333,0.6537766667,-2.2963905417
1403715529472140000,0.2876302607,0.0104719755,-0.1075122819,9.0139457917,-0.465815875,-3.5140495833
1403715529477140000,0.2638937829,0.0921533845,-0.0914552528,7.3958485417,1.544547375,-2.8766173333
1403715529482140000,0.265988178,-0.0062831853,-0.0795870139,7.967903125,-0.6946377083,-3.064578125
1403715529487140000,0.2820452071,0.0684169067,-0.0628318531,8.6625408333,0.53936575,-3.5957716667
1403715529492140000,0.272969495,0.0265290046,-0.0509636142,8.2048971667,-0.024516625,-1.9041245417
1403715529497140000,0.2764601535,0.0670206433,-0.041887902,9.8883720833,-0.073549875,-3.77556025
1403715529502140000,0.2778564169,0.0376991118,-0.0572467995,8.507268875,0.1307553333,-3.4159830833
1403715529507140000,0.2687807048,0.1075122819,-0.0439822972,8.18855275,0.196133,-3.3506054167
1403715529512140000,0.2673844414,-0.0153588974,-0.0719075652,7.3958485417,0.3268883333,-2.3862848333
1403715529517140000,0.2373647783,0.1487020523,-0.0621337214,9.7657889583,-0.2533384583,-4.65815875
1403715529522140000,0.2366666466,-0.0027925268,-0.0656243799,5.2629021667,0.8662540833,-0.367749375
1403715529527140000,0.2352703832,0.0642281165,-0.0383972435,11.4084028333,-0.9970094167,-5.4018297083
1403715529532140000,0.2701769682,0.0328121899,-0.0558505361,4.9196694167,0.563882375,0.0572054583
1403715529537140000,0.2604031244,0.0027925268,-0.0174532925,11.8251854583,-0.710982125,-6.1128118333
1403715529542140000,0.2708750999,0.0425860337,-0.041887902,4.7643974583,1.250347875,0.073549875
1403715529547140000,0.2303834613,-0.0132645023,0.0020943951,12.2583125,-0.1879607917,-6.5377666667
1403715529552140000,0.2338741198,0.0691150384,-0.0223402144,4.4701979583,1.152281375,-0.416782625
1403715529557140000,0.2101376419,-0.013962634,0.0062831853,12.6914395417,-0.5311935417,-6.0229175417
1403715529562140000,0.2254965394,0.149400184,-0.0125663706,5.0340803333,0.7273265417,0.318716125
1403715529567140000,0.2157226955,0.0830776724,-0.0153588974,12.60154525,-0.6456044583,-5.9493676667
1403715529572140000,0.2296853296,0.074700092,-0.0230383461,5.3282798333,1.0787315,-0.3350605417
1403715529577140000,0.2038544566,0.0802851456,-0.0307177948,11.8251854583,-0.53936575,-6.1863617083
1403715529582140000,0.198269403,0.0691150384,-0.0656243799,5.14849125,0.8008764167,-0.63743225
1403715529587140000,0.1870992958,0.0397935069,-0.0523598776,11.1223755417,-0.563882375,-5.5979627083
1403715529592140000,0.1898918226,0.0600393263,-0.0635299848,5.320107625,0.6292600417,-0.2369940417
1403715529597140000,0.170344135,0.0083775804,-0.0383972435,11.056997875,-0.04903325,-5.859473375
1403715529602140000,0.1829105056,0.1130973355,-0.0370009801,6.0964674167,0.3105439167,-0.6047434167
1403715529607140000,0.1591740278,0.0216420827,-0.0195476876,10.8690370833,0.269682875,-5.5897905
1403715529612140000,0.1682497399,0.1542871059,-0.0411897703,6.1373284583,0.8172208333,-0.1634441667
1403715529617140000,0.1675516082,0.0446804289,-0.0174532925,11.7107745417,-1.2094868333,-5.7940957083
1403715529622140000,0.1898918226,0.0984365698,-0.0439822972,5.5979627083,0.8253930417,-0.2860272917
1403715529627140000,0.1850049007,0.1089085453,-0.0034906585,11.6127080417,-0.8417374583,-6.03108975
1403715529632140000,0.1961750079,0.0998328332,0,5.5325850417,1.0950759167,-0.2369940417
1403715529637140000,0.1752310569,0.0733038286,0.0425860337,12.11121275,-0.4903325,-6.2190505417
1403715529642140000,0.1696460033,0.1312487597,0.0181514242,6.1618450833,0.6946377083,0.0326888333
1403715529647140000,0.1542871059,0.0628318531,0.0174532925,11.400230625,-0.416782625,-5.9657120833
1403715529652140000,0.149400184,0.1200786525,-0.0230383461,6.9708937083,0.4494714583,0.0081722083
1403715529657140000,0.142418867,0.0663225116,-0.0383972435,11.3103363333,-0.6701210833,-6.0719507917
1403715529662140000,0.1591740278,0.1347394183,-0.0614355897,7.5592927083,0.1879607917,-1.2094868333
1403715529667140000,0.1535889742,0.0837758041,-0.0656243799,11.3593695833,-0.04903325,-4.9605304583
1403715529672140000,0.1480039206,0.0949459113,-0.0712094335,6.9790659167,0.0326888333,-1.7488525833
1403715529677140000,0.1619665546,0.1214749159,-0.0397935069,10.8200038333,0.2778550833,-4.6091255
1403715529682140000,0.1277581012,0.1012290966,-0.0516617459,7.9025254583,0.2533384583,-2.50069575
1403715529687140000,0.1389282085,0.1375319451,-0.0397935069,10.9180703333,0.0980665,-4.094276375
1403715529692140000,0.109606677,0.0774926188,-0.0907571211,8.0332807917,-0.171616375,-2.770378625
1403715529697140000,0.142418867,0.1284562329,-0.0649262482,9.8720276667,0.24516625,-3.1953334583
1403715529702140000,0.1012290966,0.0048869219,-0.1403244719,8.016936375,-0.3840937917,-2.9011339583
1403715529707140000,0.1277581012,0.0558505361,-0.0914552528,9.144701125,0.7028099167,-3.1054391667
1403715529712140000,0.1012290966,-0.0523598776,-0.1368338134,8.5399577083,-0.3840937917,-3.5712550417
1403715529717140000,0.1263618378,-0.006981317,-0.0614355897,9.291800875,-0.1144109167,-2.574245625
1403715529722140000,0.1012290966,-0.0963421747,-0.0788888822,9.733100125,0.392266,-4.26589275
1403715529727140000,0.1284562329,-0.0020943951,-0.0586430629,9.7739611667,-0.2615106667,-2.329079375
1403715529732140000,0.1186823891,-0.027925268,-0.0258308729,10.321499125,-0.1552719583,-5.025908125
1403715529737140000,0.130550628,0.0397935069,-0.0565486678,9.5287949167,0.0653776667,-2.5579012083
1403715529742140000,0.1438151304,0.0509636142,0.0062831853,10.983448,-0.073549875,-4.3557870417
1403715529747140000,0.1347394183,0.0963421747,-0.0251327412,9.6023447917,0.7273265417,-2.79489525
1403715529752140000,0.1403244719,0.1200786525,0.0481710874,10.1335383333,-0.0653776667,-3.8409379167
1403715529757140000,0.1200786525,0.0998328332,0.0041887902,8.8178127917,0.4494714583,-2.8112396667
1403715529762140000,0.1375319451,0.1172861257,0.0670206433,9.7167557083,-0.4086104167,-4.0615875417
1403715529767140000,0.1256637061,0.0698131701,0.020943951,9.389867375,0.367749375,-3.2280222917
1403715529772140000,0.1417207353,0.0893608577,0.0712094335,9.8965442917,0.465815875,-3.211677875
1403715529777140000,0.1249655744,0.0495673508,0.0265290046,8.7932961667,-0.0817220833,-3.505877375
1403715529782140000,0.1361356817,0.1082104136,0.0705113018,9.3980395833,0.44129925,-3.1789890417
1403715529787140000,0.1214749159,0.0055850536,0.0481710874,9.6432058333,-0.0653776667,-4.2495483333
1403715529792140000,0.1291543646,0.1193805208,0.0726056969,9.75761675,0.1634441667,-2.89296175
1403715529797140000,0.1068141502,0.0055850536,0.0586430629,10.2397770417,0.3514049583,-4.5927810833
1403715529802140000,0.1005309649,0.1117010721,0.0474729557,8.556302125,0.220649625,-1.936813375
1403715529807140000,0.095644043,0.0076794487,0.0565486678,11.007964625,-0.1634441667,-4.3067537917
1403715529812140000,0.0991347015,0.0837758041,0.0244346095,7.771770125,0.34323275,-2.9093061667
1403715529817140000,0.1103048087,0.0383972435,0.0621337214,10.7219373333,-0.44129925,-3.947176625
1403715529822140000,0.10262536,0.0370009801,0.0237364778,8.7851239583,0.2941995,-3.947176625
1403715529827140000,0.1054178868,0.0740019603,0.0719075652,9.07115125,0.3840937917,-3.6611493333
1403715529832140000,0.0872664626,0.0300196631,0.0223402144,10.0845050833,0,-2.8766173333
1403715529837140000,0.0879645943,0.0774926188,0.0802851456,9.4470728333,0.2124774167,-3.2770555417
1403715529842140000,0.0656243799,0.0181514242,0.0230383461,8.9812569583,0.0081722083,-4.1841706667
1403715529847140000,0.0991347015,0.067718775,0.0656243799,9.3735229583,0.0408610417,-2.819411875
1403715529852140000,0.0753982237,-0.0132645023,0.0062831853,10.370532375,-0.0572054583,-3.9553488333
1403715529857140000,0.1068141502,0.0579449312,0.0390953752,10.0109552083,0.04903325,-2.4434902917
1403715529862140000,0.0753982237,-0.0188495559,0.0293215314,9.2509398333,0.2615106667,-4.4701979583
1403715529867140000,0.0851720675,0.0921533845,0.0307177948,9.1038400833,0,-2.6151066667
1403715529872140000,0.0781907505,0.0027925268,0.0760963554,11.179581,-0.318716125,-4.7889140833
1403715529877140000,0.0914552528,0.1137954672,0.0684169067,9.0384624167,0.3840937917,-3.4895329583
1403715529882140000,0.0865683309,0.0593411946,0.1319468915,10.076332875,0.1144109167,-3.4241552917
1403715529887140000,0.095644043,0.0579449312,0.1047197551,10.198916,0.04903325,-4.1351374167
1403715529892140000,0.1019272283,0.1919862177,0.1682497399,9.1038400833,0.588399,-3.3260887917
1403715529897140000,0.0851720675,0.0705113018,0.1242674427,9.929233125,-0.1144109167,-3.7428714167
1403715529902140000,0.1117010721,0.2031563249,0.1766273203,9.7739611667,0.1389275417,-2.917478375
1403715529907140000,0.0879645943,0.1068141502,0.1179842574,9.1610455417,0.1879607917,-4.1106207917
1403715529912140000,0.1144935989,0.170344135,0.149400184,9.1528733333,0.1144109167,-2.8357562917
1403715529917140000,0.0719075652,0.0858701992,0.0991347015,10.24794925,0.5475379583,-3.4977051667
1403715529922140000,0.088662726,0.2003637981,0.1130973355,9.782133375,0.073549875,-2.6804843333
1403715529927140000,0.0376991118,0.0474729557,0.0984365698,8.237586,0.4903325,-3.9553488333
1403715529932140000,0.0705113018,0.1961750079,0.1068141502,9.2836286667,0.9234595417,-2.672312125
1403715529937140000,0.0509636142,0.0544542727,0.1410226036,11.8251854583,-0.809048625,-4.2250317083
1403715529942140000,0.0781907505,0.1186823891,0.1047197551,8.18855275,0.14709975,-2.378112625
1403715529947140000,0.0788888822,0.156381501,0.1137954672,10.198916,-0.1879607917,-4.2250317083
1403715529952140000,0.0726056969,0.1082104136,0.0481710874,8.5317855,0.0081722083,-2.2391850833
1403715529957140000,0.0628318531,0.1375319451,0.0502654825,11.375714,0.7191543333,-4.2168595
1403715529962140000,0.0258308729,0.095644043,-0.0090757121,8.3438247083,0.465815875,-2.2637017083
1403715529967140000,0.027925268,0.1445132621,0.0335103216,9.8229944167,0.6701210833,-4.143309625
1403715529972140000,-0.0027925268,0.0837758041,-0.0188495559,8.6216797917,-0.1879607917,-2.9011339583
1403715529977140000,0.0356047167,0.1661553448,0.0300196631,10.5339765417,-0.0163444167,-3.5222217917
1403715529982140000,0.0097738438,0.0914552528,-0.0104719755,9.5124505,0.073549875,-4.0370709167
1403715529987140000,0.0516617459,0.2227040126,0.0104719755,10.3787045833,0.4576436667,-2.745862
1403715529992140000,0.0146607657,0.1277581012,0.0188495559,10.468598875,-0.1552719583,-4.7235364167
1403715529997140000,0.034906585,0.2680825731,-0.0027925268,8.5154410833,0.563882375,-2.3372515833
1403715530002140000,0.0118682389,0.1864011641,0.0251327412,11.0488256667,-0.4903325,-4.682675375
1403715530007140000,0.034906585,0.2373647783,-0.0125663706,8.4010301667,0.367749375,-2.2963905417
1403715530012140000,0.0244346095,0.2129301687,0.0104719755,11.0243090417,-0.1879607917,-4.3557870417
1403715530017140000,0.0181514242,0.2352703832,-0.0376991118,8.6135075833,0.4576436667,-2.3862848333
1403715530022140000,0.0111701072,0.2199114858,-0.006981317,10.44408225,0,-4.094276375
1403715530027140000,-0.0097738438,0.2324778564,-0.0446804289,8.433719,0.7763597917,-2.9746838333
1403715530032140000,-0.0125663706,0.2352703832,-0.0202458193,10.468598875,-0.14709975,-3.6938381667
1403715530037140000,-0.0328121899,0.224100276,-0.0565486678,9.2509398333,0.2288218333,-3.4486719167
